,index,Session_Name_,Trial_Index_,expcond,trialn,noisecond,whichfirstopt,noiseinl,noiseinr,freql,freqr,frame,Frame_Name,Slider_X,Choice_SND1_Time,CONF,CONF_RT,Choice_SND1,Choice_SND1_RT,TRIAL_N_LIVE,itm_1,itm,part,logRT,zRT,zLogRT,zConf,zLFreq,zRFreq,Choice,totFreq,dFreq,absDFreq,zTotFreq,zDFreq,zAbsDFreq,choFreq,unchoFreq,zChoFreq,zUnchoFreq,ConfSplit,correct,LEv_bin,REv_bin
0,0,Pilot4,21,Experiment,170,1,0,1,1,9,8,2,aversion2.png,432,1510341.39,36.67,3856,z,9283,1,SimClick_Noise_1_L07_R04.wav,SimClick_Noise_1_L09_R08.wav,0,9.135940049399933,5.672089955505507,2.897534339679282,-1.1489793536520356,1.2185435916898848,0.8703882797784892,0,17,-1,1,1.5666989036012806,-0.2335496832484569,-1.2060453783110543,9,8,1.2756177631237935,0.8178320954022383,0.0,0,4,3
1,1,Pilot4,22,Experiment,128,1,0,1,1,5,2,2,aversion2.png,612,1528637.76,66.67,4147,m,4530,2,SimClick_Noise_1_L07_R04.wav,SimClick_Noise_1_L05_R02.wav,0,8.41847721847708,2.3928864190896477,2.1151641668595578,0.7758898064156491,-0.17407765595569785,-1.2185435916898848,1,7,-3,3,-1.044465935734187,-0.7006490497453707,-0.3015113445777635,2,5,-1.174501720924956,-0.22374651666665027,1.0,1,2,0
2,2,Pilot4,23,Experiment,94,1,0,1,1,1,5,2,aversion2.png,672,1541910.13,76.67,1520,z,569,3,SimClick_Noise_1_L07_R04.wav,SimClick_Noise_1_L01_R05.wav,0,6.343880434126331,-0.3398981817399793,-0.1471169921741237,1.417512859771544,-1.5666989036012806,-0.17407765595569785,0,6,4,4,-1.3055824196677337,0.9341987329938276,0.15075567228888187,1,5,-1.5245187900747772,-0.22374651666665027,1.0,1,0,1
3,3,Pilot4,24,Experiment,145,1,0,1,1,7,1,2,aversion2.png,612,1552573.9,66.67,1198,m,416,4,SimClick_Noise_1_L07_R04.wav,SimClick_Noise_1_L07_R01.wav,0,6.030685260261263,-0.4454563852055014,-0.4886462697088707,0.7758898064156491,0.5222329678670935,-1.5666989036012806,1,8,-6,6,-0.7833494518006403,-1.4012980994907414,1.0552897060221726,1,7,-1.5245187900747772,0.4706392247126088,1.0,1,3,0
4,4,Pilot4,25,Experiment,120,1,0,1,1,4,3,2,aversion2.png,432,1568486.36,36.67,3067,m,6145,5,SimClick_Noise_1_L07_R04.wav,SimClick_Noise_1_L04_R03.wav,0,8.723394022000136,3.5071119001146034,2.4476661474306223,-1.1489793536520356,-0.5222329678670935,-0.8703882797784892,1,7,-1,1,-1.044465935734187,-0.2335496832484569,-1.2060453783110543,3,4,-0.8244846517751346,-0.5709393873562798,0.0,1,1,0
5,5,Pilot4,26,Experiment,121,1,0,1,1,4,5,2,aversion2.png,552,1580543.21,56.67,2839,m,868,6,SimClick_Noise_1_L07_R04.wav,SimClick_Noise_1_L04_R05.wav,0,6.7661917146603505,-0.13361123509820744,0.3133998949657026,0.1342667530597542,-0.5222329678670935,-0.17407765595569785,1,9,1,1,-0.5222329678670935,0.2335496832484569,-1.2060453783110543,5,4,-0.12445051347549191,-0.5709393873562798,0.0,0,1,1
6,6,Pilot4,27,Experiment,92,1,0,1,1,1,3,2,aversion2.png,612,1606317.64,66.67,2873,z,343,7,SimClick_Noise_1_L07_R04.wav,SimClick_Noise_1_L01_R03.wav,0,5.8377304471659395,-0.49582075679362636,-0.6990572958432942,0.7758898064156491,-1.5666989036012806,-0.8703882797784892,0,4,2,2,-1.8278153875348273,0.4670993664969138,-0.7537783614444089,1,3,-1.5245187900747772,-0.9181322580459093,1.0,1,0,0
7,7,Pilot4,28,Experiment,96,1,0,1,1,1,7,2,aversion2.png,672,1620439.28,76.67,3083,z,864,8,SimClick_Noise_1_L07_R04.wav,SimClick_Noise_1_L01_R07.wav,0,6.761572768804055,-0.1363709266920773,0.3083630828660619,1.417512859771544,-1.5666989036012806,0.5222329678670935,0,8,6,6,-0.7833494518006403,1.4012980994907414,1.0552897060221726,1,7,-1.5245187900747772,0.4706392247126088,1.0,1,0,2
8,8,Pilot4,29,Experiment,161,1,0,1,1,8,9,2,aversion2.png,612,1633431.15,66.67,1612,z,1473,9,SimClick_Noise_1_L07_R04.wav,SimClick_Noise_1_L08_R09.wav,0,7.29505641646263,0.2837921184746086,0.8901098655924496,0.7758898064156491,0.8703882797784892,1.2185435916898848,0,17,1,1,1.5666989036012806,0.2335496832484569,-1.2060453783110543,8,9,0.9256006939739722,1.165024966091868,1.0,1,3,4
9,9,Pilot4,30,Experiment,146,1,0,1,1,7,2,2,aversion2.png,612,1643965.49,66.67,2775,z,741,10,SimClick_Noise_1_L07_R04.wav,SimClick_Noise_1_L07_R02.wav,0,6.608000625296087,-0.22123144320357543,0.1408975929784829,0.7758898064156491,0.5222329678670935,-1.2185435916898848,0,9,-5,5,-0.5222329678670935,-1.1677484162422844,0.6030226891555273,7,2,0.5755836248241508,-1.265325128735539,1.0,0,3,0
10,10,Pilot4,31,Experiment,99,1,0,1,1,1,10,2,aversion2.png,612,1658775.28,66.67,895,z,434,11,SimClick_Noise_1_L07_R04.wav,SimClick_Noise_1_L01_R10.wav,0,6.073044534100405,-0.43303777303308705,-0.4424548421314734,0.7758898064156491,-1.5666989036012806,1.5666989036012806,0,11,9,9,0.0,2.101947149236112,2.412090756622109,1,10,-1.5245187900747772,1.5122178367814973,1.0,1,0,4
11,11,Pilot4,32,Experiment,129,1,0,1,1,5,3,2,aversion2.png,582,1668846.86,61.67,3548,z,339,12,SimClick_Noise_1_L07_R04.wav,SimClick_Noise_1_L05_R03.wav,0,5.82600010738045,-0.4985804483874962,-0.7118488546107399,0.45507827973770165,-0.17407765595569785,-0.8703882797784892,0,8,-2,2,-0.7833494518006403,-0.4670993664969138,-0.7537783614444089,5,3,-0.12445051347549191,-0.9181322580459093,1.0,0,2,0
12,12,Pilot4,33,Experiment,126,1,0,1,1,4,10,2,aversion2.png,612,1681381.4,66.67,2381,z,390,13,SimClick_Noise_1_L07_R04.wav,SimClick_Noise_1_L04_R10.wav,0,5.966146739123692,-0.4633943805656555,-0.5590234540864685,0.7758898064156491,-0.5222329678670935,1.5666989036012806,0,14,6,6,0.7833494518006403,1.4012980994907414,1.0552897060221726,4,10,-0.47446758262531324,1.5122178367814973,1.0,1,1,4
13,13,Pilot4,34,Experiment,176,1,0,1,1,10,5,2,aversion2.png,582,1693190.87,61.67,1934,m,433,14,SimClick_Noise_1_L07_R04.wav,SimClick_Noise_1_L10_R05.wav,0,6.07073772800249,-0.4337276959315545,-0.4449703400885819,0.45507827973770165,1.5666989036012806,-0.17407765595569785,1,15,-5,5,1.044465935734187,-1.1677484162422844,0.6030226891555273,5,10,-0.12445051347549191,1.5122178367814973,1.0,1,4,1
14,14,Pilot4,35,Experiment,171,1,0,1,1,9,10,2,aversion2.png,582,1703837.95,61.67,2451,z,446,15,SimClick_Noise_1_L07_R04.wav,SimClick_Noise_1_L09_R10.wav,0,6.100318952020064,-0.4247586982514775,-0.4127129654214093,0.45507827973770165,1.2185435916898848,1.5666989036012806,0,19,1,1,2.088931871468374,0.2335496832484569,-1.2060453783110543,9,10,1.2756177631237935,1.5122178367814973,0.0,1,4,4
15,15,Pilot4,36,Experiment,156,1,0,1,1,8,3,2,aversion2.png,582,1714678.67,61.67,1786,m,454,16,SimClick_Noise_1_L07_R04.wav,SimClick_Noise_1_L08_R03.wav,0,6.118097198041348,-0.4192393150637378,-0.39332635915748254,0.45507827973770165,0.8703882797784892,-0.8703882797784892,1,11,-5,5,0.0,-1.1677484162422844,0.6030226891555273,3,8,-0.8244846517751346,0.8178320954022383,1.0,1,3,0
16,16,Pilot4,37,Experiment,138,1,0,1,1,6,3,2,aversion2.png,582,1725150.25,61.67,1520,m,675,17,SimClick_Noise_1_L07_R04.wav,SimClick_Noise_1_L06_R03.wav,0,6.51471269087253,-0.2667663545024281,0.0391700968194507,0.45507827973770165,0.17407765595569785,-0.8703882797784892,1,9,-3,3,-0.5222329678670935,-0.7006490497453707,-0.3015113445777635,3,6,-0.8244846517751346,0.12344635402297925,1.0,1,2,0
17,17,Pilot4,38,Experiment,133,1,0,1,1,5,8,2,aversion2.png,402,1737015.35,31.67,1421,z,2091,18,SimClick_Noise_1_L07_R04.wav,SimClick_Noise_1_L05_R08.wav,0,7.645397699428633,0.7101644697275017,1.2721457820000388,-1.469790880329983,-0.17407765595569785,0.8703882797784892,0,13,3,3,0.5222329678670935,0.7006490497453707,-0.3015113445777635,5,8,-0.12445051347549191,0.8178320954022383,0.0,1,2,3
18,18,Pilot4,39,Experiment,150,1,0,1,1,7,6,2,aversion2.png,432,1748318.17,36.67,4953,z,1793,19,SimClick_Noise_1_L07_R04.wav,SimClick_Noise_1_L07_R06.wav,0,7.491645473605133,0.5045674459841973,1.104483918131465,-1.1489793536520356,0.5222329678670935,0.17407765595569785,0,13,-1,1,0.5222329678670935,-0.2335496832484569,-1.2060453783110543,7,6,0.5755836248241508,0.12344635402297925,0.0,0,3,2
19,19,Pilot4,40,Experiment,158,1,0,1,1,8,5,2,aversion2.png,402,1763998.46,31.67,1485,m,1690,20,SimClick_Noise_1_L07_R04.wav,SimClick_Noise_1_L08_R05.wav,0,7.432483807917119,0.4335053874420484,1.0399700219215426,-1.469790880329983,0.8703882797784892,-0.17407765595569785,1,13,-3,3,0.5222329678670935,-0.7006490497453707,-0.3015113445777635,5,8,-0.12445051347549191,0.8178320954022383,0.0,1,3,1
20,20,Pilot4,41,Experiment,159,1,0,1,1,8,6,2,aversion2.png,432,1776621.61,36.67,2189,m,2547,21,SimClick_Noise_1_L07_R04.wav,SimClick_Noise_1_L08_R06.wav,0,7.842671474979457,1.0247693114286656,1.4872664979707497,-1.1489793536520356,0.8703882797784892,0.17407765595569785,1,14,-2,2,0.7833494518006403,-0.4670993664969138,-0.7537783614444089,6,8,0.22556655567432946,0.8178320954022383,0.0,1,3,2
21,21,Pilot4,42,Experiment,127,1,0,1,1,5,1,2,aversion2.png,582,1790471.08,61.67,2570,m,1663,22,SimClick_Noise_1_L07_R04.wav,SimClick_Noise_1_L05_R01.wav,0,7.416378479192928,0.4148774691834269,1.0224076782374012,0.45507827973770165,-0.17407765595569785,-1.5666989036012806,1,6,-4,4,-1.3055824196677337,-0.9341987329938276,0.15075567228888187,1,5,-1.5245187900747772,-0.22374651666665027,1.0,1,2,0
22,22,Pilot4,43,Experiment,137,1,0,1,1,6,2,2,aversion2.png,582,1804982.82,61.67,1733,m,2208,23,SimClick_Noise_1_L07_R04.wav,SimClick_Noise_1_L06_R02.wav,0,7.699842407396986,0.7908854488481951,1.3315159873213784,0.45507827973770165,0.17407765595569785,-1.2185435916898848,1,8,-4,4,-0.7833494518006403,-0.9341987329938276,0.15075567228888187,2,6,-1.174501720924956,0.12344635402297925,1.0,1,2,0
23,23,Pilot4,44,Experiment,135,1,0,1,1,5,10,2,aversion2.png,582,1815117.72,61.67,2826,z,793,24,SimClick_Noise_1_L07_R04.wav,SimClick_Noise_1_L05_R10.wav,0,6.675823221634848,-0.1853554524832673,0.2148559558812498,0.45507827973770165,-0.17407765595569785,1.5666989036012806,0,15,5,5,1.044465935734187,1.1677484162422844,0.6030226891555273,5,10,-0.12445051347549191,1.5122178367814973,1.0,1,2,4
24,24,Pilot4,45,Experiment,175,1,0,1,1,10,4,2,aversion2.png,582,1827366.6,61.67,2480,z,642,25,SimClick_Noise_1_L07_R04.wav,SimClick_Noise_1_L10_R04.wav,0,6.464588303689961,-0.2895338101518544,-0.015488937450055577,0.45507827973770165,1.5666989036012806,-0.5222329678670935,0,14,-6,6,0.7833494518006403,-1.4012980994907414,1.0552897060221726,10,4,1.625634832273615,-0.5709393873562798,1.0,0,4,1
25,25,Pilot4,46,Experiment,97,1,0,1,1,1,8,2,aversion2.png,582,1838982.37,61.67,2406,z,791,26,SimClick_Noise_1_L07_R04.wav,SimClick_Noise_1_L01_R08.wav,0,6.673297967767654,-0.18673529828020222,0.21210224764810207,0.45507827973770165,-1.5666989036012806,0.8703882797784892,0,9,7,7,-0.5222329678670935,1.6348477827391983,1.507556722888818,1,8,-1.5245187900747772,0.8178320954022383,1.0,1,0,3
26,26,Pilot4,47,Experiment,108,1,0,1,1,2,10,2,aversion2.png,582,1849790.16,61.67,2229,z,399,27,SimClick_Noise_1_L07_R04.wav,SimClick_Noise_1_L02_R10.wav,0,5.988961416889864,-0.45718507447944834,-0.5341447807706863,0.45507827973770165,-1.2185435916898848,1.5666989036012806,0,12,8,8,0.26111648393354675,1.8683974659876552,1.9598237397554636,2,10,-1.174501720924956,1.5122178367814973,1.0,1,0,4
27,27,Pilot4,48,Experiment,112,1,0,1,1,3,5,2,aversion2.png,582,1865391.36,61.67,2149,z,4600,28,SimClick_Noise_1_L07_R04.wav,SimClick_Noise_1_L03_R05.wav,0,8.433811582477187,2.4411810219823704,2.1318857982748227,0.45507827973770165,-0.8703882797784892,-0.17407765595569785,0,8,2,2,-0.7833494518006403,0.4670993664969138,-0.7537783614444089,3,5,-0.8244846517751346,-0.22374651666665027,1.0,1,1,1
28,28,Pilot4,49,Experiment,124,1,0,1,1,4,8,2,aversion2.png,552,1876526.91,56.67,3585,z,702,29,SimClick_Noise_1_L07_R04.wav,SimClick_Noise_1_L04_R08.wav,0,6.553933404025811,-0.24813843624380655,0.08193902477684131,0.1342667530597542,-0.5222329678670935,0.8703882797784892,0,12,4,4,0.26111648393354675,0.9341987329938276,0.15075567228888187,4,8,-0.47446758262531324,0.8178320954022383,0.0,1,1,3
29,29,Pilot4,50,Experiment,114,1,0,1,1,3,7,2,aversion2.png,582,1889397.66,61.67,2797,z,1156,30,SimClick_Noise_1_L07_R04.wav,SimClick_Noise_1_L03_R07.wav,0,7.052721049232323,0.06508655966042236,0.625850931235621,0.45507827973770165,-0.8703882797784892,0.5222329678670935,0,10,4,4,-0.26111648393354675,0.9341987329938276,0.15075567228888187,3,7,-0.8244846517751346,0.4706392247126088,1.0,1,1,2
30,30,Pilot4,51,Experiment,131,1,0,1,1,5,6,2,aversion2.png,642,1901958.07,71.67,1990,z,417,31,SimClick_Noise_1_L07_R04.wav,SimClick_Noise_1_L05_R06.wav,0,6.0330862217988015,-0.444766462307034,-0.48602809826904697,1.0967013330935966,-0.17407765595569785,0.17407765595569785,0,11,1,1,0.0,0.2335496832484569,-1.2060453783110543,5,6,-0.12445051347549191,0.12344635402297925,1.0,1,2,2
31,31,Pilot4,52,Experiment,144,1,0,1,1,6,10,2,aversion2.png,552,1915878.39,56.67,2745,z,1037,32,SimClick_Noise_1_L07_R04.wav,SimClick_Noise_1_L06_R10.wav,0,6.9440872082295275,-0.017014265257205924,0.5073892168495184,0.1342667530597542,0.17407765595569785,1.5666989036012806,0,16,4,4,1.3055824196677337,0.9341987329938276,0.15075567228888187,6,10,0.22556655567432946,1.5122178367814973,0.0,1,2,4
32,32,Pilot4,53,Experiment,111,1,0,1,1,3,4,2,aversion2.png,582,1929213.76,61.67,3253,z,706,33,SimClick_Noise_1_L07_R04.wav,SimClick_Noise_1_L03_R04.wav,0,6.559615237493242,-0.2453787446499367,0.08813488167737107,0.45507827973770165,-0.8703882797784892,-0.5222329678670935,0,7,1,1,-1.044465935734187,0.2335496832484569,-1.2060453783110543,3,4,-0.8244846517751346,-0.5709393873562798,1.0,1,1,1
33,33,Pilot4,54,Experiment,172,1,0,1,1,10,1,2,aversion2.png,612,1941101.73,66.67,2265,m,794,34,SimClick_Noise_1_L07_R04.wav,SimClick_Noise_1_L10_R01.wav,0,6.677083461247136,-0.18466552958479981,0.21623020670061585,0.7758898064156491,1.5666989036012806,-1.5666989036012806,1,11,-9,9,0.0,-2.101947149236112,2.412090756622109,1,10,-1.5245187900747772,1.5122178367814973,1.0,1,4,0
34,34,Pilot4,55,Experiment,149,1,0,1,1,7,5,2,aversion2.png,612,1955119.27,66.67,1977,z,328,35,SimClick_Noise_1_L07_R04.wav,SimClick_Noise_1_L07_R05.wav,0,5.793013608384144,-0.5061696002706383,-0.7478195722676556,0.7758898064156491,0.5222329678670935,-0.17407765595569785,0,12,-2,2,0.26111648393354675,-0.4670993664969138,-0.7537783614444089,7,5,0.5755836248241508,-0.22374651666665027,1.0,0,3,1
35,35,Pilot4,56,Experiment,168,1,0,1,1,9,6,2,aversion2.png,612,1965701.51,66.67,1417,m,227,36,SimClick_Noise_1_L07_R04.wav,SimClick_Noise_1_L09_R06.wav,0,5.424950017481403,-0.5758518130158522,-1.1491810962546585,0.7758898064156491,1.2185435916898848,0.17407765595569785,1,15,-3,3,1.044465935734187,-0.7006490497453707,-0.3015113445777635,6,9,0.22556655567432946,1.165024966091868,1.0,1,4,2
36,36,Pilot4,57,Experiment,101,1,0,1,1,2,3,2,aversion2.png,582,1977327.3,61.67,3103,z,919,37,SimClick_Noise_1_L07_R04.wav,SimClick_Noise_1_L02_R03.wav,0,6.823286122355687,-0.09842516727636674,0.3756595127331953,0.45507827973770165,-1.2185435916898848,-0.8703882797784892,0,5,1,1,-1.5666989036012806,0.2335496832484569,-1.2060453783110543,2,3,-1.174501720924956,-0.9181322580459093,1.0,1,0,0
37,37,Pilot4,58,Experiment,139,1,0,1,1,6,4,2,aversion2.png,582,1989590.03,61.67,2661,z,832,38,SimClick_Noise_1_L07_R04.wav,SimClick_Noise_1_L06_R04.wav,0,6.723832440821209,-0.15844845944303615,0.26720846738830534,0.45507827973770165,0.17407765595569785,-0.5222329678670935,0,10,-2,2,-0.26111648393354675,-0.4670993664969138,-0.7537783614444089,6,4,0.22556655567432946,-0.5709393873562798,1.0,0,2,1
38,38,Pilot4,59,Experiment,160,1,0,1,1,8,7,2,aversion2.png,432,2001959.09,36.67,4039,z,1701,39,SimClick_Noise_1_L07_R04.wav,SimClick_Noise_1_L08_R07.wav,0,7.438971592395862,0.44109453932519055,1.0470447425134397,-1.1489793536520356,0.8703882797784892,0.5222329678670935,0,15,-1,1,1.044465935734187,-0.2335496832484569,-1.2060453783110543,8,7,0.9256006939739722,0.4706392247126088,0.0,0,3,2
39,39,Pilot4,60,Experiment,105,1,0,1,1,2,7,2,aversion2.png,552,2014197.65,56.67,4053,z,340,40,SimClick_Noise_1_L07_R04.wav,SimClick_Noise_1_L02_R07.wav,0,5.8289456176102075,-0.49789052548902873,-0.7086368703124962,0.1342667530597542,-1.2185435916898848,0.5222329678670935,0,9,5,5,-0.5222329678670935,1.1677484162422844,0.6030226891555273,2,7,-1.174501720924956,0.4706392247126088,0.0,1,0,2
40,40,Pilot4,61,Experiment,154,1,0,1,1,8,1,2,aversion2.png,612,2030965.39,66.67,1727,m,324,41,SimClick_Noise_1_L07_R04.wav,SimClick_Noise_1_L08_R01.wav,0,5.780743515792329,-0.5089292918645082,-0.7611997141339938,0.7758898064156491,0.8703882797784892,-1.5666989036012806,1,9,-7,7,-0.5222329678670935,-1.6348477827391983,1.507556722888818,1,8,-1.5245187900747772,0.8178320954022383,1.0,1,3,0
41,41,Pilot4,62,Experiment,130,1,0,1,1,5,4,2,aversion2.png,432,2042846.45,36.67,1459,z,1555,42,SimClick_Noise_1_L07_R04.wav,SimClick_Noise_1_L05_R04.wav,0,7.349230824613334,0.34036579614894075,0.949185317644446,-1.1489793536520356,-0.17407765595569785,-0.5222329678670935,0,9,-1,1,-0.5222329678670935,-0.2335496832484569,-1.2060453783110543,5,4,-0.12445051347549191,-0.5709393873562798,0.0,0,2,1
42,42,Pilot4,63,Experiment,134,1,0,1,1,5,9,2,aversion2.png,552,2052814.46,56.67,2029,z,556,43,SimClick_Noise_1_L07_R04.wav,SimClick_Noise_1_L05_R09.wav,0,6.320768294250582,-0.3488671794200564,-0.1723200383661673,0.1342667530597542,-0.17407765595569785,1.2185435916898848,0,14,4,4,0.7833494518006403,0.9341987329938276,0.15075567228888187,5,9,-0.12445051347549191,1.165024966091868,0.0,1,2,4
43,43,Pilot4,64,Experiment,104,1,0,1,1,2,6,2,aversion2.png,582,2064829.43,61.67,1548,z,488,44,SimClick_Noise_1_L07_R04.wav,SimClick_Noise_1_L02_R06.wav,0,6.1903154058531475,-0.395781936515844,-0.3145747231267046,0.45507827973770165,-1.2185435916898848,0.17407765595569785,0,8,4,4,-0.7833494518006403,0.9341987329938276,0.15075567228888187,2,6,-1.174501720924956,0.12344635402297925,1.0,1,0,2
44,44,Pilot4,65,Experiment,178,1,0,1,1,10,7,2,aversion2.png,402,2076302.94,31.67,2569,z,811,45,SimClick_Noise_1_L07_R04.wav,SimClick_Noise_1_L10_R07.wav,0,6.698268054115413,-0.1729368403108529,0.2393313247921976,-1.469790880329983,1.5666989036012806,0.5222329678670935,0,17,-3,3,1.5666989036012806,-0.7006490497453707,-0.3015113445777635,10,7,1.625634832273615,0.4706392247126088,0.0,0,4,2
45,45,Pilot4,66,Experiment,110,1,0,1,1,3,2,2,aversion2.png,612,2207437.62,66.67,1611,z,1096,46,SimClick_Noise_1_L07_R04.wav,SimClick_Noise_1_L03_R02.wav,0,6.999422467507961,0.023691185752374486,0.5677305397707438,0.7758898064156491,-0.8703882797784892,-1.2185435916898848,0,5,-1,1,-1.5666989036012806,-0.2335496832484569,-1.2060453783110543,3,2,-0.8244846517751346,-1.265325128735539,1.0,0,1,0
46,46,Pilot4,67,Experiment,143,1,0,1,1,6,9,2,aversion2.png,552,2219294.97,56.67,3842,z,504,47,SimClick_Noise_1_L07_R04.wav,SimClick_Noise_1_L06_R09.wav,0,6.222576268071369,-0.3847431701403645,-0.27939528906944816,0.1342667530597542,0.17407765595569785,1.2185435916898848,0,15,3,3,1.044465935734187,0.7006490497453707,-0.3015113445777635,6,9,0.22556655567432946,1.165024966091868,0.0,1,2,4
47,47,Pilot4,68,Experiment,125,1,0,1,1,4,9,2,aversion2.png,552,2231990.8,56.67,1685,z,983,48,SimClick_Noise_1_L07_R04.wav,SimClick_Noise_1_L04_R09.wav,0,6.890609120147166,-0.05427010177444901,0.4490730794668361,0.1342667530597542,-0.5222329678670935,1.2185435916898848,0,13,5,5,0.5222329678670935,1.1677484162422844,0.6030226891555273,4,9,-0.47446758262531324,1.165024966091868,0.0,1,1,4
48,48,Pilot4,69,Experiment,153,1,0,1,1,7,10,2,aversion2.png,492,2243861.67,46.67,1587,z,1154,49,SimClick_Noise_1_L07_R04.wav,SimClick_Noise_1_L07_R10.wav,0,7.050989447068045,0.06370671386348743,0.6239626746930784,-0.5073563002961406,0.5222329678670935,1.5666989036012806,0,17,3,3,1.5666989036012806,0.7006490497453707,-0.3015113445777635,7,10,0.5755836248241508,1.5122178367814973,0.0,1,3,4
49,49,Pilot4,70,Experiment,164,1,0,1,1,9,2,2,aversion2.png,432,2259535.33,36.67,1945,m,4427,50,SimClick_Noise_1_L07_R04.wav,SimClick_Noise_1_L09_R02.wav,0,8.395477432732141,2.321824360547499,2.090083639238443,-1.1489793536520356,1.2185435916898848,-1.2185435916898848,1,11,-7,7,0.0,-1.6348477827391983,1.507556722888818,2,9,-1.174501720924956,1.165024966091868,0.0,1,4,0
50,50,Pilot4,71,Experiment,152,1,0,1,1,7,9,2,aversion2.png,492,2269599.01,46.67,4966,z,391,51,SimClick_Noise_1_L07_R04.wav,SimClick_Noise_1_L07_R09.wav,0,5.968707559985366,-0.46270445766718804,-0.5562309611882219,-0.5073563002961406,0.5222329678670935,1.2185435916898848,0,16,2,2,1.3055824196677337,0.4670993664969138,-0.7537783614444089,7,9,0.5755836248241508,1.165024966091868,0.0,1,3,4
51,51,Pilot4,72,Experiment,166,1,0,1,1,9,4,2,aversion2.png,552,2285533.51,56.67,4160,m,2292,52,SimClick_Noise_1_L07_R04.wav,SimClick_Noise_1_L09_R04.wav,0,7.73718007783463,0.8488389723194621,1.3722315176791129,0.1342667530597542,1.2185435916898848,-0.5222329678670935,1,13,-5,5,0.5222329678670935,-1.1677484162422844,0.6030226891555273,4,9,-0.47446758262531324,1.165024966091868,0.0,1,4,1
52,52,Pilot4,73,Experiment,148,1,0,1,1,7,4,2,aversion2.png,372,2298301.88,26.67,1746,m,977,53,SimClick_Noise_1_L07_R04.wav,SimClick_Noise_1_L07_R04.wav,0,6.884486652042782,-0.058409639165253796,0.44239672464752244,-1.7906024070079305,0.5222329678670935,-0.5222329678670935,1,11,-3,3,0.0,-0.7006490497453707,-0.3015113445777635,4,7,-0.47446758262531324,0.4706392247126088,0.0,1,3,1
53,53,Pilot4,74,Experiment,147,1,0,1,1,7,3,2,aversion2.png,492,2312486.35,46.67,1393,m,578,54,SimClick_Noise_1_L07_R04.wav,SimClick_Noise_1_L07_R03.wav,0,6.359573868672378,-0.33368887565377214,-0.13000380586155505,-0.5073563002961406,0.5222329678670935,-0.8703882797784892,1,10,-4,4,-0.26111648393354675,-0.9341987329938276,0.15075567228888187,3,7,-0.8244846517751346,0.4706392247126088,0.0,1,3,0
54,54,Pilot4,75,Experiment,115,1,0,1,1,3,8,2,aversion2.png,552,2322109.39,56.67,2121,z,418,55,SimClick_Noise_1_L07_R04.wav,SimClick_Noise_1_L03_R08.wav,0,6.035481432524756,-0.4440765394085665,-0.4834161979045437,0.1342667530597542,-0.8703882797784892,0.8703882797784892,0,11,5,5,0.0,1.1677484162422844,0.6030226891555273,3,8,-0.8244846517751346,0.8178320954022383,0.0,1,1,3
55,55,Pilot4,76,Experiment,141,1,0,1,1,6,7,2,aversion2.png,552,2333278.3,56.67,1315,z,1004,56,SimClick_Noise_1_L07_R04.wav,SimClick_Noise_1_L06_R07.wav,0,6.911747300251674,-0.039781720906632255,0.4721235859302665,0.1342667530597542,0.17407765595569785,0.5222329678670935,0,13,1,1,0.5222329678670935,0.2335496832484569,-1.2060453783110543,6,7,0.22556655567432946,0.4706392247126088,0.0,1,2,2
56,56,Pilot4,77,Experiment,116,1,0,1,1,3,9,2,aversion2.png,582,2343926.98,61.67,4640,z,1052,57,SimClick_Noise_1_L07_R04.wav,SimClick_Noise_1_L03_R09.wav,0,6.9584483932976555,-0.006665421780193956,0.5230496278971473,0.45507827973770165,-0.8703882797784892,1.2185435916898848,0,12,6,6,0.26111648393354675,1.4012980994907414,1.0552897060221726,3,9,-0.8244846517751346,1.165024966091868,0.0,1,1,4
57,57,Pilot4,78,Experiment,169,1,0,1,1,9,7,2,aversion2.png,252,2358846.45,6.67,5132,m,2188,58,SimClick_Noise_1_L07_R04.wav,SimClick_Noise_1_L09_R07.wav,0,7.690743163541872,0.7770869908788458,1.321593554157423,-3.0738485137197205,1.2185435916898848,0.5222329678670935,1,16,-2,2,1.3055824196677337,-0.4670993664969138,-0.7537783614444089,7,9,0.5755836248241508,1.165024966091868,0.0,1,4,2
58,58,Pilot4,79,Experiment,106,1,0,1,1,2,8,2,aversion2.png,642,2373750.88,71.67,2001,z,776,59,SimClick_Noise_1_L07_R04.wav,SimClick_Noise_1_L02_R08.wav,0,6.654152520183219,-0.19708414175721417,0.19122475199292127,1.0967013330935966,-1.2185435916898848,0.8703882797784892,0,10,6,6,-0.26111648393354675,1.4012980994907414,1.0552897060221726,2,8,-1.174501720924956,0.8178320954022383,1.0,1,0,3
59,59,Pilot4,80,Experiment,180,1,0,1,1,10,9,2,aversion2.png,612,2383902.24,66.67,2769,m,711,60,SimClick_Noise_1_L07_R04.wav,SimClick_Noise_1_L10_R09.wav,0,6.566672429803241,-0.24192913015759937,0.09583052322035351,0.7758898064156491,1.5666989036012806,1.2185435916898848,1,19,-1,1,2.088931871468374,-0.2335496832484569,-1.2060453783110543,9,10,1.2756177631237935,1.5122178367814973,1.0,1,4,4
60,60,Pilot4,81,Experiment,155,1,0,1,1,8,2,2,aversion2.png,582,2394606.78,61.67,1814,m,315,61,SimClick_Noise_1_L07_R04.wav,SimClick_Noise_1_L08_R02.wav,0,5.752572638825633,-0.5151385979507154,-0.7919191506413422,0.45507827973770165,0.8703882797784892,-1.2185435916898848,1,10,-6,6,-0.26111648393354675,-1.4012980994907414,1.0552897060221726,2,8,-1.174501720924956,0.8178320954022383,0.0,1,3,0
61,61,Pilot4,82,Experiment,100,1,0,1,1,2,1,2,aversion2.png,432,2407966.78,36.67,3390,z,3759,62,SimClick_Noise_1_L07_R04.wav,SimClick_Noise_1_L02_R01.wav,0,8.231908243564177,1.8609558643712327,1.911716692155323,-1.1489793536520356,-1.2185435916898848,-1.5666989036012806,0,3,-1,1,-2.088931871468374,-0.2335496832484569,-1.2060453783110543,2,1,-1.174501720924956,-1.6125179994251684,0.0,0,0,0
62,62,Pilot4,83,Experiment,109,1,0,1,1,3,1,2,aversion2.png,492,2423631.25,46.67,2389,m,3590,63,SimClick_Noise_1_L07_R04.wav,SimClick_Noise_1_L03_R01.wav,0,8.185907481482324,1.744358894530231,1.8615543386107836,-0.5073563002961406,-0.8703882797784892,-1.5666989036012806,1,4,-2,2,-1.8278153875348273,-0.4670993664969138,-0.7537783614444089,1,3,-1.5245187900747772,-0.9181322580459093,0.0,1,1,0
63,63,Pilot4,84,Experiment,174,1,0,1,1,10,3,2,aversion2.png,582,2434334.83,61.67,2727,m,577,64,SimClick_Noise_1_L07_R04.wav,SimClick_Noise_1_L10_R03.wav,0,6.3578422665081,-0.3343787985522396,-0.13189206240409754,0.45507827973770165,1.5666989036012806,-0.8703882797784892,1,13,-7,7,0.5222329678670935,-1.6348477827391983,1.507556722888818,3,10,-0.8244846517751346,1.5122178367814973,0.0,1,4,0
64,64,Pilot4,85,Experiment,91,1,0,1,1,1,2,2,aversion2.png,642,2446181.63,71.67,3150,z,674,65,SimClick_Noise_1_L07_R04.wav,SimClick_Noise_1_L01_R02.wav,0,6.513230110912307,-0.26745627740089556,0.037553390992046555,1.0967013330935966,-1.5666989036012806,-1.2185435916898848,0,3,1,1,-2.088931871468374,0.2335496832484569,-1.2060453783110543,1,2,-1.5245187900747772,-1.265325128735539,1.0,1,0,0
65,65,Pilot4,86,Experiment,123,1,0,1,1,4,7,2,aversion2.png,582,2459757.6,61.67,1982,z,783,66,SimClick_Noise_1_L07_R04.wav,SimClick_Noise_1_L04_R07.wav,0,6.663132695990803,-0.19225468146794192,0.20101734527541051,0.45507827973770165,-0.5222329678670935,0.5222329678670935,0,11,3,3,0.0,0.7006490497453707,-0.3015113445777635,4,7,-0.47446758262531324,0.4706392247126088,0.0,1,1,2
66,66,Pilot4,87,Experiment,162,1,0,1,1,8,10,2,aversion2.png,582,2469711.31,61.67,2456,z,337,67,SimClick_Noise_1_L07_R04.wav,SimClick_Noise_1_L08_R10.wav,0,5.820082930352362,-0.4999602941844311,-0.7183013461051294,0.45507827973770165,0.8703882797784892,1.5666989036012806,0,18,2,2,1.8278153875348273,0.4670993664969138,-0.7537783614444089,8,10,0.9256006939739722,1.5122178367814973,0.0,1,3,4
67,67,Pilot4,88,Experiment,136,1,0,1,1,6,1,2,aversion2.png,612,2480303.24,66.67,745,m,379,68,SimClick_Noise_1_L07_R04.wav,SimClick_Noise_1_L06_R01.wav,0,5.937536205082426,-0.4709835324487976,-0.5902223225122206,0.7758898064156491,0.17407765595569785,-1.5666989036012806,1,7,-5,5,-1.044465935734187,-1.1677484162422844,0.6030226891555273,1,6,-1.5245187900747772,0.12344635402297925,1.0,1,2,0
68,68,Pilot4,89,Experiment,113,1,0,1,1,3,6,2,aversion2.png,552,2488894.97,56.67,2409,z,254,69,SimClick_Noise_1_L07_R04.wav,SimClick_Noise_1_L03_R06.wav,0,5.537334267018537,-0.5572238947572307,-1.0266296818218226,0.1342667530597542,-0.8703882797784892,0.17407765595569785,0,9,3,3,-0.5222329678670935,0.7006490497453707,-0.3015113445777635,3,6,-0.8244846517751346,0.12344635402297925,0.0,1,1,2
69,69,Pilot4,90,Experiment,157,1,0,1,1,8,4,2,aversion2.png,582,2499397.45,61.67,2301,m,423,70,SimClick_Noise_1_L07_R04.wav,SimClick_Noise_1_L08_R04.wav,0,6.0473721790462776,-0.4406269249162292,-0.4704497207435848,0.45507827973770165,0.8703882797784892,-0.5222329678670935,1,12,-4,4,0.26111648393354675,-0.9341987329938276,0.15075567228888187,4,8,-0.47446758262531324,0.8178320954022383,1.0,1,3,1
70,70,Pilot4,91,Experiment,163,1,0,1,1,9,1,2,aversion2.png,582,2509629.75,61.67,2829,m,372,71,SimClick_Noise_1_L07_R04.wav,SimClick_Noise_1_L09_R01.wav,0,5.918893854273146,-0.4758129927380699,-0.6105512072931393,0.45507827973770165,1.2185435916898848,-1.5666989036012806,1,10,-8,8,-0.26111648393354675,-1.8683974659876552,1.9598237397554636,1,9,-1.5245187900747772,1.165024966091868,1.0,1,4,0
71,71,Pilot4,92,Experiment,117,1,0,1,1,3,10,2,aversion2.png,582,2521239.02,61.67,2211,z,314,72,SimClick_Noise_1_L07_R04.wav,SimClick_Noise_1_L03_R10.wav,0,5.749392985908253,-0.5158285208491828,-0.7953864600199724,0.45507827973770165,-0.8703882797784892,1.5666989036012806,0,13,7,7,0.5222329678670935,1.6348477827391983,1.507556722888818,3,10,-0.8244846517751346,1.5122178367814973,0.0,1,1,4
72,72,Pilot4,93,Experiment,119,1,0,1,1,4,2,2,aversion2.png,582,2531766.35,61.67,1487,m,375,73,SimClick_Noise_1_L07_R04.wav,SimClick_Noise_1_L04_R02.wav,0,5.926926025970411,-0.47374322404266744,-0.60179238204386,0.45507827973770165,-0.5222329678670935,-1.2185435916898848,1,6,-2,2,-1.3055824196677337,-0.4670993664969138,-0.7537783614444089,2,4,-1.174501720924956,-0.5709393873562798,0.0,1,1,0
73,73,Pilot4,94,Experiment,118,1,0,1,1,4,1,2,aversion2.png,612,2548838.81,66.67,1556,m,331,74,SimClick_Noise_1_L07_R04.wav,SimClick_Noise_1_L04_R01.wav,0,5.802118375377063,-0.5040998315752359,-0.7378911162993225,0.7758898064156491,-0.5222329678670935,-1.5666989036012806,1,5,-3,3,-1.5666989036012806,-0.7006490497453707,-0.3015113445777635,1,4,-1.5245187900747772,-0.5709393873562798,1.0,1,1,0
74,74,Pilot4,95,Experiment,165,1,0,1,1,9,3,2,aversion2.png,582,2559078.18,61.67,2978,m,187,75,SimClick_Noise_1_L07_R04.wav,SimClick_Noise_1_L09_R03.wav,0,5.231108616854587,-0.6034487289545508,-1.36055891761573,0.45507827973770165,1.2185435916898848,-0.8703882797784892,1,12,-6,6,0.26111648393354675,-1.4012980994907414,1.0552897060221726,3,9,-0.8244846517751346,1.165024966091868,0.0,1,4,0
75,75,Pilot4,96,Experiment,98,1,0,1,1,1,9,2,aversion2.png,582,2570246.67,61.67,2700,z,305,76,SimClick_Noise_1_L07_R04.wav,SimClick_Noise_1_L01_R09.wav,0,5.720311776607412,-0.52203782693539,-0.8270985846985986,0.45507827973770165,-1.5666989036012806,1.2185435916898848,0,10,8,8,-0.26111648393354675,1.8683974659876552,1.9598237397554636,1,9,-1.5245187900747772,1.165024966091868,0.0,1,0,4
76,76,Pilot4,97,Experiment,177,1,0,1,1,10,6,2,aversion2.png,582,2581013.68,61.67,2997,m,189,77,SimClick_Noise_1_L07_R04.wav,SimClick_Noise_1_L10_R06.wav,0,5.241747015059643,-0.6020688831576159,-1.3489580860695038,0.45507827973770165,1.5666989036012806,0.17407765595569785,1,16,-4,4,1.3055824196677337,-0.9341987329938276,0.15075567228888187,6,10,0.22556655567432946,1.5122178367814973,1.0,1,4,2
77,77,Pilot4,98,Experiment,173,1,0,1,1,10,2,2,aversion2.png,612,2594310.84,66.67,1352,m,353,78,SimClick_Noise_1_L07_R04.wav,SimClick_Noise_1_L10_R02.wav,0,5.8664680569332965,-0.4889215278089517,-0.6677198554198049,0.7758898064156491,1.5666989036012806,-1.2185435916898848,1,12,-8,8,0.26111648393354675,-1.8683974659876552,1.9598237397554636,2,10,-1.174501720924956,1.5122178367814973,1.0,1,4,0
78,78,Pilot4,99,Experiment,179,1,0,1,1,10,8,2,aversion2.png,342,2605159.25,21.67,1719,z,1418,79,SimClick_Noise_1_L07_R04.wav,SimClick_Noise_1_L10_R08.wav,0,7.257002707092073,0.24584635905889807,0.8486135177769404,-2.111413933685878,1.5666989036012806,0.8703882797784892,0,18,-2,2,1.8278153875348273,-0.4670993664969138,-0.7537783614444089,10,8,1.625634832273615,0.8178320954022383,0.0,0,4,3
79,79,Pilot4,100,Experiment,140,1,0,1,1,6,5,2,aversion2.png,552,2616326.47,56.67,2297,z,435,80,SimClick_Noise_1_L07_R04.wav,SimClick_Noise_1_L06_R05.wav,0,6.075346031088684,-0.43234785013461957,-0.4399451335878992,0.1342667530597542,0.17407765595569785,-0.17407765595569785,0,11,-1,1,0.0,-0.2335496832484569,-1.2060453783110543,6,5,0.22556655567432946,-0.22374651666665027,0.0,0,2,1
80,80,Pilot4,101,Experiment,107,1,0,1,1,2,9,2,aversion2.png,552,2627127.27,56.67,2783,z,353,81,SimClick_Noise_1_L07_R04.wav,SimClick_Noise_1_L02_R09.wav,0,5.8664680569332965,-0.4889215278089517,-0.6677198554198049,0.1342667530597542,-1.2185435916898848,1.2185435916898848,0,11,7,7,0.0,1.6348477827391983,1.507556722888818,2,9,-1.174501720924956,1.165024966091868,0.0,1,0,4
81,81,Pilot4,102,Experiment,102,1,0,1,1,2,4,2,aversion2.png,582,2638149.89,61.67,1440,z,409,82,SimClick_Noise_1_L07_R04.wav,SimClick_Noise_1_L02_R04.wav,0,6.013715156042802,-0.4502858454947737,-0.5071516232936528,0.45507827973770165,-1.2185435916898848,-0.5222329678670935,0,6,2,2,-1.3055824196677337,0.4670993664969138,-0.7537783614444089,2,4,-1.174501720924956,-0.5709393873562798,1.0,1,0,1
82,82,Pilot4,103,Experiment,93,1,0,1,1,1,4,2,aversion2.png,402,2647373.97,31.67,2759,z,49,83,SimClick_Noise_1_L07_R04.wav,SimClick_Noise_1_L01_R04.wav,0,3.8918202981106265,-0.6986580889430609,-2.821009812393607,-1.469790880329983,-1.5666989036012806,-0.5222329678670935,0,5,3,3,-1.5666989036012806,0.7006490497453707,-0.3015113445777635,1,4,-1.5245187900747772,-0.5709393873562798,0.0,1,0,1
83,83,Pilot4,104,Experiment,167,1,0,1,1,9,5,2,aversion2.png,402,2665645.81,31.67,2541,m,6571,84,SimClick_Noise_1_L07_R04.wav,SimClick_Noise_1_L09_R05.wav,0,8.790421306897867,3.8010190548617433,2.52075724875168,-1.469790880329983,1.2185435916898848,-0.17407765595569785,1,14,-4,4,0.7833494518006403,-0.9341987329938276,0.15075567228888187,5,9,-0.12445051347549191,1.165024966091868,0.0,1,4,1
84,84,Pilot4,105,Experiment,103,1,0,1,1,2,5,2,aversion2.png,552,2676750.5,56.67,3967,z,309,85,SimClick_Noise_1_L07_R04.wav,SimClick_Noise_1_L02_R05.wav,0,5.733341276897746,-0.5192781353415201,-0.8128903331285611,0.1342667530597542,-1.2185435916898848,-0.17407765595569785,0,7,3,3,-1.044465935734187,0.7006490497453707,-0.3015113445777635,2,5,-1.174501720924956,-0.22374651666665027,0.0,1,0,1
85,85,Pilot4,106,Experiment,95,1,0,1,1,1,6,2,aversion2.png,642,2688583.33,71.67,2959,z,409,86,SimClick_Noise_1_L07_R04.wav,SimClick_Noise_1_L01_R06.wav,0,6.013715156042802,-0.4502858454947737,-0.5071516232936528,1.0967013330935966,-1.5666989036012806,0.17407765595569785,0,7,5,5,-1.044465935734187,1.1677484162422844,0.6030226891555273,1,6,-1.5245187900747772,0.12344635402297925,1.0,1,0,2
86,86,Pilot4,107,Experiment,142,1,0,1,1,6,8,2,aversion2.png,582,2699855.25,61.67,1803,z,381,87,SimClick_Noise_1_L07_R04.wav,SimClick_Noise_1_L06_R08.wav,0,5.942799375126701,-0.4696036866518627,-0.5844830046275263,0.45507827973770165,0.17407765595569785,0.8703882797784892,0,14,2,2,0.7833494518006403,0.4670993664969138,-0.7537783614444089,6,8,0.22556655567432946,0.8178320954022383,1.0,1,2,3
87,87,Pilot4,108,Experiment,132,1,0,1,1,5,7,2,aversion2.png,582,2710750.89,61.67,2505,z,1126,88,SimClick_Noise_1_L07_R04.wav,SimClick_Noise_1_L05_R07.wav,0,7.026426808699636,0.04438887270639842,0.5971779064835779,0.45507827973770165,-0.17407765595569785,0.5222329678670935,0,12,2,2,0.26111648393354675,0.4670993664969138,-0.7537783614444089,5,7,-0.12445051347549191,0.4706392247126088,1.0,1,2,2
88,88,Pilot4,109,Experiment,122,1,0,1,1,4,6,2,aversion2.png,552,2723381.8,56.67,3958,z,1440,89,SimClick_Noise_1_L07_R04.wav,SimClick_Noise_1_L04_R06.wav,0,7.272398392570047,0.2610246628251823,0.8654020182942245,0.1342667530597542,-0.5222329678670935,0.17407765595569785,0,10,2,2,-0.26111648393354675,0.4670993664969138,-0.7537783614444089,4,6,-0.47446758262531324,0.12344635402297925,0.0,1,1,2
89,89,Pilot4,110,Experiment,151,1,0,1,1,7,8,2,aversion2.png,642,2736461.42,71.67,3275,m,337,90,SimClick_Noise_1_L07_R04.wav,SimClick_Noise_1_L07_R08.wav,0,5.820082930352362,-0.4999602941844311,-0.7183013461051294,1.0967013330935966,0.5222329678670935,0.8703882797784892,1,15,1,1,1.044465935734187,0.2335496832484569,-1.2060453783110543,8,7,0.9256006939739722,0.4706392247126088,1.0,0,3,3
90,90,Pilot4,111,Experiment,21,1,0,1,1,3,4,1,like2.png,402,2903182.29,31.67,2894,m,9674,91,SimClick_Noise_1_L07_R04.wav,SimClick_Noise_1_L03_R04.wav,0,9.177197153382929,5.941849808806285,2.9425238864293197,-1.469790880329983,-0.8703882797784892,-0.5222329678670935,1,7,1,1,-1.044465935734187,0.2335496832484569,-1.2060453783110543,4,3,-0.47446758262531324,-0.9181322580459093,0.0,1,1,1
91,91,Pilot4,112,Experiment,83,1,0,1,1,10,2,1,like2.png,552,2915461.45,56.67,3900,z,437,92,SimClick_Noise_1_L07_R04.wav,SimClick_Noise_1_L10_R02.wav,0,6.07993319509559,-0.4309680043376847,-0.43494297857421166,0.1342667530597542,1.5666989036012806,-1.2185435916898848,0,12,-8,8,0.26111648393354675,-1.8683974659876552,1.9598237397554636,10,2,1.625634832273615,-1.265325128735539,0.0,1,4,0
92,92,Pilot4,113,Experiment,45,1,0,1,1,5,10,1,like2.png,212,2928765.52,0.0,1831,z,441,93,SimClick_Noise_1_L07_R04.wav,SimClick_Noise_1_L05_R10.wav,0,6.089044875446846,-0.4282083127438148,-0.42500698381066293,-3.5018110903081023,-0.17407765595569785,1.5666989036012806,0,15,5,5,1.044465935734187,1.1677484162422844,0.6030226891555273,5,10,-0.12445051347549191,1.5122178367814973,0.0,0,2,4
93,93,Pilot4,114,Experiment,53,1,0,1,1,6,9,1,like2.png,612,2938797.49,66.67,2462,m,406,94,SimClick_Noise_1_L07_R04.wav,SimClick_Noise_1_L06_R09.wav,0,6.0063531596017325,-0.45235561419017606,-0.5151796439515162,0.7758898064156491,0.17407765595569785,1.2185435916898848,1,15,3,3,1.044465935734187,0.7006490497453707,-0.3015113445777635,9,6,1.2756177631237935,0.12344635402297925,1.0,1,2,4
94,94,Pilot4,115,Experiment,73,1,0,1,1,9,1,1,like2.png,582,2950413.51,61.67,2646,z,589,95,SimClick_Noise_1_L07_R04.wav,SimClick_Noise_1_L09_R01.wav,0,6.3784261836515865,-0.32609972377063007,-0.1094459618972014,0.45507827973770165,1.2185435916898848,-1.5666989036012806,0,10,-8,8,-0.26111648393354675,-1.8683974659876552,1.9598237397554636,9,1,1.2756177631237935,-1.6125179994251684,1.0,1,4,0
95,95,Pilot4,116,Experiment,19,1,0,1,1,3,1,1,like2.png,462,2964941.41,41.67,3863,m,4000,96,SimClick_Noise_1_L07_R04.wav,SimClick_Noise_1_L03_R01.wav,0,8.294049640102028,2.0272272829018916,1.9794798891505476,-0.8281678269740882,-0.8703882797784892,-1.5666989036012806,1,4,-2,2,-1.8278153875348273,-0.4670993664969138,-0.7537783614444089,1,3,-1.5245187900747772,-0.9181322580459093,0.0,0,1,0
96,96,Pilot4,117,Experiment,41,1,0,1,1,5,6,1,like2.png,582,2978334.97,61.67,1351,m,860,97,SimClick_Noise_1_L07_R04.wav,SimClick_Noise_1_L05_R06.wav,0,6.756932389247553,-0.13913061828594717,0.3033028980047782,0.45507827973770165,-0.17407765595569785,0.17407765595569785,1,11,1,1,0.0,0.2335496832484569,-1.2060453783110543,6,5,0.22556655567432946,-0.22374651666665027,0.0,1,2,2
97,97,Pilot4,118,Experiment,8,1,0,1,1,1,9,1,like2.png,612,2987814.59,66.67,1877,m,307,98,SimClick_Noise_1_L07_R04.wav,SimClick_Noise_1_L01_R09.wav,0,5.726847747587197,-0.5206579811384551,-0.8199713182750243,0.7758898064156491,-1.5666989036012806,1.2185435916898848,1,10,8,8,-0.26111648393354675,1.8683974659876552,1.9598237397554636,9,1,1.2756177631237935,-1.6125179994251684,1.0,1,0,4
98,98,Pilot4,119,Experiment,63,1,0,1,1,7,10,1,like2.png,672,3001797.81,76.67,3071,m,590,99,SimClick_Noise_1_L07_R04.wav,SimClick_Noise_1_L07_R10.wav,0,6.380122536899765,-0.3254098008721626,-0.1075961431655002,1.417512859771544,0.5222329678670935,1.5666989036012806,1,17,3,3,1.5666989036012806,0.7006490497453707,-0.3015113445777635,10,7,1.625634832273615,0.4706392247126088,1.0,1,3,4
99,99,Pilot4,120,Experiment,16,1,0,1,1,2,8,1,like2.png,582,3013109.95,61.67,2681,m,385,100,SimClick_Noise_1_L07_R04.wav,SimClick_Noise_1_L02_R08.wav,0,5.953243334287785,-0.46684399505799284,-0.5730942026135338,0.45507827973770165,-1.2185435916898848,0.8703882797784892,1,10,6,6,-0.26111648393354675,1.4012980994907414,1.0552897060221726,8,2,0.9256006939739722,-1.265325128735539,0.0,1,0,3
100,100,Pilot4,121,Experiment,38,1,0,1,1,5,2,1,like2.png,552,3026213.46,56.67,1973,z,1905,101,SimClick_Noise_1_L07_R04.wav,SimClick_Noise_1_L05_R02.wav,0,7.552237287560802,0.5818388106125533,1.1705573450921076,0.1342667530597542,-0.17407765595569785,-1.2185435916898848,0,7,-3,3,-1.044465935734187,-0.7006490497453707,-0.3015113445777635,5,2,-0.12445051347549191,-1.265325128735539,0.0,1,2,0
101,101,Pilot4,122,Experiment,57,1,0,1,1,7,3,1,like2.png,582,3037005.43,61.67,1581,z,781,102,SimClick_Noise_1_L07_R04.wav,SimClick_Noise_1_L07_R03.wav,0,6.660575149839686,-0.19363452726487684,0.19822842334384533,0.45507827973770165,0.5222329678670935,-0.8703882797784892,0,10,-4,4,-0.26111648393354675,-0.9341987329938276,0.15075567228888187,7,3,0.5755836248241508,-0.9181322580459093,1.0,1,3,0
102,102,Pilot4,123,Experiment,10,1,0,1,1,2,1,1,like2.png,372,3049550.73,26.67,4176,m,3043,103,SimClick_Noise_1_L07_R04.wav,SimClick_Noise_1_L02_R01.wav,0,8.02059914989697,1.366971069068528,1.6812909125812885,-1.7906024070079305,-1.2185435916898848,-1.5666989036012806,1,3,-1,1,-2.088931871468374,-0.2335496832484569,-1.2060453783110543,1,2,-1.5245187900747772,-1.265325128735539,0.0,0,0,0
103,103,Pilot4,124,Experiment,7,1,0,1,1,1,8,1,like2.png,582,3064230.58,61.67,1516,m,2173,104,SimClick_Noise_1_L07_R04.wav,SimClick_Noise_1_L01_R08.wav,0,7.6838639802564295,0.7667381474018338,1.3140920257382194,0.45507827973770165,-1.5666989036012806,0.8703882797784892,1,9,7,7,-0.5222329678670935,1.6348477827391983,1.507556722888818,8,1,0.9256006939739722,-1.6125179994251684,0.0,1,0,3
104,104,Pilot4,125,Experiment,43,1,0,1,1,5,8,1,like2.png,372,3081366.09,26.67,3839,z,4225,105,SimClick_Noise_1_L07_R04.wav,SimClick_Noise_1_L05_R08.wav,0,8.348774539791274,2.182459935057071,2.0391556345439996,-1.7906024070079305,-0.17407765595569785,0.8703882797784892,0,13,3,3,0.5222329678670935,0.7006490497453707,-0.3015113445777635,5,8,-0.12445051347549191,0.8178320954022383,0.0,0,2,3
105,105,Pilot4,126,Experiment,15,1,0,1,1,2,7,1,like2.png,582,3094997.65,61.67,2071,m,206,106,SimClick_Noise_1_L07_R04.wav,SimClick_Noise_1_L02_R07.wav,0,5.327876168789581,-0.590340193883669,-1.2550370103228574,0.45507827973770165,-1.2185435916898848,0.5222329678670935,1,9,5,5,-0.5222329678670935,1.1677484162422844,0.6030226891555273,7,2,0.5755836248241508,-1.265325128735539,1.0,1,0,2
106,106,Pilot4,127,Experiment,2,1,0,1,1,1,3,1,like2.png,582,3105101.59,61.67,2026,m,327,107,SimClick_Noise_1_L07_R04.wav,SimClick_Noise_1_L01_R03.wav,0,5.7899601708972535,-0.5068595231691058,-0.7511492477732704,0.45507827973770165,-1.5666989036012806,-0.8703882797784892,1,4,2,2,-1.8278153875348273,0.4670993664969138,-0.7537783614444089,3,1,-0.8244846517751346,-1.6125179994251684,1.0,1,0,0
107,107,Pilot4,128,Experiment,23,1,0,1,1,3,6,1,like2.png,582,3115469.79,61.67,2658,m,379,108,SimClick_Noise_1_L07_R04.wav,SimClick_Noise_1_L03_R06.wav,0,5.937536205082426,-0.4709835324487976,-0.5902223225122206,0.45507827973770165,-0.8703882797784892,0.17407765595569785,1,9,3,3,-0.5222329678670935,0.7006490497453707,-0.3015113445777635,6,3,0.22556655567432946,-0.9181322580459093,1.0,1,1,2
108,108,Pilot4,129,Experiment,25,1,0,1,1,3,8,1,like2.png,582,3129789.39,61.67,1869,m,315,109,SimClick_Noise_1_L07_R04.wav,SimClick_Noise_1_L03_R08.wav,0,5.752572638825633,-0.5151385979507154,-0.7919191506413422,0.45507827973770165,-0.8703882797784892,0.8703882797784892,1,11,5,5,0.0,1.1677484162422844,0.6030226891555273,8,3,0.9256006939739722,-0.9181322580459093,1.0,1,1,3
109,109,Pilot4,130,Experiment,22,1,0,1,1,3,5,1,like2.png,612,3141031.17,66.67,2301,m,323,110,SimClick_Noise_1_L07_R04.wav,SimClick_Noise_1_L03_R05.wav,0,5.777652323222656,-0.5096192147629757,-0.7645705603447208,0.7758898064156491,-0.8703882797784892,-0.17407765595569785,1,8,2,2,-0.7833494518006403,0.4670993664969138,-0.7537783614444089,5,3,-0.12445051347549191,-0.9181322580459093,1.0,1,1,1
110,110,Pilot4,131,Experiment,77,1,0,1,1,9,5,1,like2.png,582,3152566.25,61.67,2335,z,358,111,SimClick_Noise_1_L07_R04.wav,SimClick_Noise_1_L09_R05.wav,0,5.8805329864007,-0.4854719133166144,-0.6523825015892856,0.45507827973770165,1.2185435916898848,-0.17407765595569785,0,14,-4,4,0.7833494518006403,-0.9341987329938276,0.15075567228888187,9,5,1.2756177631237935,-0.22374651666665027,1.0,1,4,1
111,111,Pilot4,132,Experiment,80,1,0,1,1,9,8,1,like2.png,402,3165901.53,31.67,850,m,1310,112,SimClick_Noise_1_L07_R04.wav,SimClick_Noise_1_L09_R08.wav,0,7.177782416195197,0.1713346860244119,0.7622263350428957,-1.469790880329983,1.2185435916898848,0.8703882797784892,1,17,-1,1,1.5666989036012806,-0.2335496832484569,-1.2060453783110543,8,9,0.9256006939739722,1.165024966091868,0.0,0,4,3
112,112,Pilot4,133,Experiment,79,1,0,1,1,9,7,1,like2.png,372,3175814.89,26.67,2310,z,1224,113,SimClick_Noise_1_L07_R04.wav,SimClick_Noise_1_L09_R07.wav,0,7.1098794630722715,0.11200131675620995,0.6881803456479896,-1.7906024070079305,1.2185435916898848,0.5222329678670935,0,16,-2,2,1.3055824196677337,-0.4670993664969138,-0.7537783614444089,9,7,1.2756177631237935,0.4706392247126088,0.0,1,4,2
113,113,Pilot4,134,Experiment,67,1,0,1,1,8,4,1,like2.png,432,3187470.07,36.67,2532,z,629,114,SimClick_Noise_1_L07_R04.wav,SimClick_Noise_1_L08_R04.wav,0,6.444131256700441,-0.29850280783193145,-0.03779669012901369,-1.1489793536520356,0.8703882797784892,-0.5222329678670935,0,12,-4,4,0.26111648393354675,-0.9341987329938276,0.15075567228888187,8,4,0.9256006939739722,-0.5709393873562798,0.0,1,3,1
114,114,Pilot4,135,Experiment,90,1,0,1,1,10,9,1,like2.png,312,3199670.72,16.67,3091,z,1963,115,SimClick_Noise_1_L07_R04.wav,SimClick_Noise_1_L10_R09.wav,0,7.5822291942764615,0.6218543387236662,1.20326255605076,-2.4322254603638256,1.5666989036012806,1.2185435916898848,0,19,-1,1,2.088931871468374,-0.2335496832484569,-1.2060453783110543,10,9,1.625634832273615,1.165024966091868,0.0,1,4,4
115,115,Pilot4,136,Experiment,74,1,0,1,1,9,2,1,like2.png,552,3214190.78,56.67,3430,z,350,116,SimClick_Noise_1_L07_R04.wav,SimClick_Noise_1_L09_R02.wav,0,5.857933154483459,-0.4909912965043541,-0.677026892407477,0.1342667530597542,1.2185435916898848,-1.2185435916898848,0,11,-7,7,0.0,-1.6348477827391983,1.507556722888818,9,2,1.2756177631237935,-1.265325128735539,0.0,1,4,0
116,116,Pilot4,137,Experiment,14,1,0,1,1,2,6,1,like2.png,552,3226294.44,56.67,1354,m,737,117,SimClick_Noise_1_L07_R04.wav,SimClick_Noise_1_L02_R06.wav,0,6.602587892189336,-0.22399113479744528,0.13499518137799885,0.1342667530597542,-1.2185435916898848,0.17407765595569785,1,8,4,4,-0.7833494518006403,0.9341987329938276,0.15075567228888187,6,2,0.22556655567432946,-1.265325128735539,0.0,1,0,2
117,117,Pilot4,138,Experiment,81,1,0,1,1,9,10,1,like2.png,342,3236558.26,21.67,1022,z,317,118,SimClick_Noise_1_L07_R04.wav,SimClick_Noise_1_L09_R10.wav,0,5.75890177387728,-0.5137587521537804,-0.7850174321540063,-2.111413933685878,1.2185435916898848,1.5666989036012806,0,19,1,1,2.088931871468374,0.2335496832484569,-1.2060453783110543,9,10,1.2756177631237935,1.5122178367814973,0.0,0,4,4
118,118,Pilot4,139,Experiment,6,1,0,1,1,1,7,1,like2.png,612,3245894.13,66.67,3474,m,686,119,SimClick_Noise_1_L07_R04.wav,SimClick_Noise_1_L01_R07.wav,0,6.530877627725885,-0.259177202619286,0.05679744125388171,0.7758898064156491,-1.5666989036012806,0.5222329678670935,1,8,6,6,-0.7833494518006403,1.4012980994907414,1.0552897060221726,7,1,0.5755836248241508,-1.6125179994251684,1.0,1,0,2
119,119,Pilot4,140,Experiment,5,1,0,1,1,1,6,1,like2.png,552,3258238.1,56.67,1653,z,297,120,SimClick_Noise_1_L07_R04.wav,SimClick_Noise_1_L01_R06.wav,0,5.6937321388027,-0.5275572101231297,-0.8560828260090649,0.1342667530597542,-1.5666989036012806,0.17407765595569785,0,7,5,5,-1.044465935734187,1.1677484162422844,0.6030226891555273,1,6,-1.5245187900747772,0.12344635402297925,0.0,0,0,2
120,120,Pilot4,141,Experiment,62,1,0,1,1,7,9,1,like2.png,372,3268534.68,26.67,1409,m,1027,121,SimClick_Noise_1_L07_R04.wav,SimClick_Noise_1_L07_R09.wav,0,6.934397209928558,-0.02391349424188057,0.4968225849368923,-1.7906024070079305,0.5222329678670935,1.2185435916898848,1,16,2,2,1.3055824196677337,0.4670993664969138,-0.7537783614444089,9,7,1.2756177631237935,0.4706392247126088,0.0,1,3,4
121,121,Pilot4,142,Experiment,82,1,0,1,1,10,1,1,like2.png,582,3284374.48,61.67,1741,z,433,122,SimClick_Noise_1_L07_R04.wav,SimClick_Noise_1_L10_R01.wav,0,6.07073772800249,-0.4337276959315545,-0.4449703400885819,0.45507827973770165,1.5666989036012806,-1.5666989036012806,0,11,-9,9,0.0,-2.101947149236112,2.412090756622109,10,1,1.625634832273615,-1.6125179994251684,1.0,1,4,0
122,122,Pilot4,143,Experiment,26,1,0,1,1,3,9,1,like2.png,552,3294190.44,56.67,2415,m,316,123,SimClick_Noise_1_L07_R04.wav,SimClick_Noise_1_L03_R09.wav,0,5.755742213586912,-0.5144486750522479,-0.7884628311682381,0.1342667530597542,-0.8703882797784892,1.2185435916898848,1,12,6,6,0.26111648393354675,1.4012980994907414,1.0552897060221726,9,3,1.2756177631237935,-0.9181322580459093,0.0,1,1,4
123,123,Pilot4,144,Experiment,35,1,0,1,1,4,9,1,like2.png,612,3305654.43,66.67,2044,m,763,124,SimClick_Noise_1_L07_R04.wav,SimClick_Noise_1_L04_R09.wav,0,6.637258031284457,-0.20605313943729123,0.17280185448557056,0.7758898064156491,-0.5222329678670935,1.2185435916898848,1,13,5,5,0.5222329678670935,1.1677484162422844,0.6030226891555273,9,4,1.2756177631237935,-0.5709393873562798,1.0,1,1,4
124,124,Pilot4,145,Experiment,70,1,0,1,1,8,7,1,like2.png,582,3318222.69,61.67,1348,m,798,125,SimClick_Noise_1_L07_R04.wav,SimClick_Noise_1_L08_R07.wav,0,6.682108597449809,-0.18190583799092996,0.22170995632648974,0.45507827973770165,0.8703882797784892,0.5222329678670935,1,15,-1,1,1.044465935734187,-0.2335496832484569,-1.2060453783110543,7,8,0.5755836248241508,0.8178320954022383,1.0,0,3,2
125,125,Pilot4,146,Experiment,50,1,0,1,1,6,5,1,like2.png,402,3334261.5,31.67,2250,z,6220,126,SimClick_Noise_1_L07_R04.wav,SimClick_Noise_1_L06_R05.wav,0,8.735525185733225,3.5588561174996634,2.4608947918387982,-1.469790880329983,0.17407765595569785,-0.17407765595569785,0,11,-1,1,0.0,-0.2335496832484569,-1.2060453783110543,6,5,0.22556655567432946,-0.22374651666665027,0.0,1,2,1
126,126,Pilot4,147,Experiment,46,1,0,1,1,6,1,1,like2.png,522,3345661.9,51.67,2051,z,537,127,SimClick_Noise_1_L07_R04.wav,SimClick_Noise_1_L06_R01.wav,0,6.285998094508865,-0.3619757144909382,-0.2102358243949892,-0.18654477361819324,0.17407765595569785,-1.5666989036012806,0,7,-5,5,-1.044465935734187,-1.1677484162422844,0.6030226891555273,6,1,0.22556655567432946,-1.6125179994251684,0.0,1,2,0
127,127,Pilot4,148,Experiment,18,1,0,1,1,2,10,1,like2.png,582,3355742.15,61.67,1351,m,334,128,SimClick_Noise_1_L07_R04.wav,SimClick_Noise_1_L02_R10.wav,0,5.811140992976701,-0.5020300628798335,-0.7280522416057928,0.45507827973770165,-1.2185435916898848,1.5666989036012806,1,12,8,8,0.26111648393354675,1.8683974659876552,1.9598237397554636,10,2,1.625634832273615,-1.265325128735539,1.0,1,0,4
128,128,Pilot4,149,Experiment,27,1,0,1,1,3,10,1,like2.png,582,3368357.67,61.67,2183,m,466,129,SimClick_Noise_1_L07_R04.wav,SimClick_Noise_1_L03_R10.wav,0,6.144185634125646,-0.4109602402821282,-0.3648777575461432,0.45507827973770165,-0.8703882797784892,1.5666989036012806,1,13,7,7,0.5222329678670935,1.6348477827391983,1.507556722888818,10,3,1.625634832273615,-0.9181322580459093,1.0,1,1,4
129,129,Pilot4,150,Experiment,75,1,0,1,1,9,3,1,like2.png,582,3378759.05,61.67,1032,z,184,130,SimClick_Noise_1_L07_R04.wav,SimClick_Noise_1_L09_R03.wav,0,5.214935757608986,-0.6055184976499532,-1.378194901164445,0.45507827973770165,1.2185435916898848,-0.8703882797784892,0,12,-6,6,0.26111648393354675,-1.4012980994907414,1.0552897060221726,9,3,1.2756177631237935,-0.9181322580459093,1.0,1,4,0
130,130,Pilot4,151,Experiment,51,1,0,1,1,6,7,1,like2.png,522,3389543.26,51.67,2256,m,1102,131,SimClick_Noise_1_L07_R04.wav,SimClick_Noise_1_L06_R07.wav,0,7.004881989712859,0.027830723143179272,0.5736839733799318,-0.18654477361819324,0.17407765595569785,0.5222329678670935,1,13,1,1,0.5222329678670935,0.2335496832484569,-1.2060453783110543,7,6,0.5755836248241508,0.12344635402297925,0.0,1,2,2
131,131,Pilot4,152,Experiment,39,1,0,1,1,5,3,1,like2.png,432,3407095.09,36.67,2946,z,4737,132,SimClick_Noise_1_L07_R04.wav,SimClick_Noise_1_L05_R03.wav,0,8.463159302923751,2.535700459072413,2.1638885447977465,-1.1489793536520356,-0.17407765595569785,-0.8703882797784892,0,8,-2,2,-0.7833494518006403,-0.4670993664969138,-0.7537783614444089,5,3,-0.12445051347549191,-0.9181322580459093,0.0,1,2,0
132,132,Pilot4,153,Experiment,61,1,0,1,1,7,8,1,like2.png,582,3420134.01,61.67,1105,m,676,133,SimClick_Noise_1_L07_R04.wav,SimClick_Noise_1_L07_R08.wav,0,6.516193076042964,-0.2660764316039606,0.04078440929908472,0.45507827973770165,0.5222329678670935,0.8703882797784892,1,15,1,1,1.044465935734187,0.2335496832484569,-1.2060453783110543,8,7,0.9256006939739722,0.4706392247126088,1.0,1,3,3
133,133,Pilot4,154,Experiment,11,1,0,1,1,2,3,1,like2.png,402,3430133.4,31.67,1488,m,1242,134,SimClick_Noise_1_L07_R04.wav,SimClick_Noise_1_L02_R03.wav,0,7.124478262493424,0.12441992892862432,0.7040998675156191,-1.469790880329983,-1.2185435916898848,-0.8703882797784892,1,5,1,1,-1.5666989036012806,0.2335496832484569,-1.2060453783110543,3,2,-0.8244846517751346,-1.265325128735539,0.0,1,0,0
134,134,Pilot4,155,Experiment,42,1,0,1,1,5,7,1,like2.png,582,3440398.77,61.67,1542,m,541,135,SimClick_Noise_1_L07_R04.wav,SimClick_Noise_1_L05_R07.wav,0,6.293419278846481,-0.35921602289706833,-0.20214326123700713,0.45507827973770165,-0.17407765595569785,0.5222329678670935,1,12,2,2,0.26111648393354675,0.4670993664969138,-0.7537783614444089,7,5,0.5755836248241508,-0.22374651666665027,0.0,1,2,2
135,135,Pilot4,156,Experiment,20,1,0,1,1,3,2,1,like2.png,312,3571973.76,16.67,2383,z,2416,136,SimClick_Noise_1_L07_R04.wav,SimClick_Noise_1_L03_R02.wav,0,7.789868559054706,0.9343894117294277,1.4296866141399804,-2.4322254603638256,-0.8703882797784892,-1.2185435916898848,0,5,-1,1,-1.5666989036012806,-0.2335496832484569,-1.2060453783110543,3,2,-0.8244846517751346,-1.265325128735539,0.0,1,1,0
136,136,Pilot4,157,Experiment,58,1,0,1,1,7,4,1,like2.png,582,3582813.54,61.67,1813,z,439,137,SimClick_Noise_1_L07_R04.wav,SimClick_Noise_1_L07_R04.wav,0,6.0844994130751715,-0.4295881585407497,-0.4299636645305523,0.45507827973770165,0.5222329678670935,-0.5222329678670935,0,11,-3,3,0.0,-0.7006490497453707,-0.3015113445777635,7,4,0.5755836248241508,-0.5709393873562798,1.0,1,3,1
137,137,Pilot4,158,Experiment,72,1,0,1,1,8,10,1,like2.png,612,3592799.06,66.67,2269,m,325,138,SimClick_Noise_1_L07_R04.wav,SimClick_Noise_1_L08_R10.wav,0,5.783825182329737,-0.5082393689660407,-0.7578392557554828,0.7758898064156491,0.8703882797784892,1.5666989036012806,1,18,2,2,1.8278153875348273,0.4670993664969138,-0.7537783614444089,10,8,1.625634832273615,0.8178320954022383,1.0,1,3,4
138,138,Pilot4,159,Experiment,59,1,0,1,1,7,5,1,like2.png,402,3604311.45,31.67,2185,z,1654,139,SimClick_Noise_1_L07_R04.wav,SimClick_Noise_1_L07_R05.wav,0,7.4109518755836366,0.4086681630972197,1.016490141299405,-1.469790880329983,0.5222329678670935,-0.17407765595569785,0,12,-2,2,0.26111648393354675,-0.4670993664969138,-0.7537783614444089,7,5,0.5755836248241508,-0.22374651666665027,0.0,1,3,1
139,139,Pilot4,160,Experiment,87,1,0,1,1,10,6,1,like2.png,432,3615222.79,36.67,1380,z,565,140,SimClick_Noise_1_L07_R04.wav,SimClick_Noise_1_L10_R06.wav,0,6.336825731146441,-0.34265787333384917,-0.15480991918257728,-1.1489793536520356,1.5666989036012806,0.17407765595569785,0,16,-4,4,1.3055824196677337,-0.9341987329938276,0.15075567228888187,10,6,1.625634832273615,0.12344635402297925,0.0,1,4,2
140,140,Pilot4,161,Experiment,47,1,0,1,1,6,2,1,like2.png,282,3625653.81,11.67,876,m,829,141,SimClick_Noise_1_L07_R04.wav,SimClick_Noise_1_L06_R02.wav,0,6.720220155135295,-0.16051822813843855,0.26326938587138937,-2.753036987041773,0.17407765595569785,-1.2185435916898848,1,8,-4,4,-0.7833494518006403,-0.9341987329938276,0.15075567228888187,2,6,-1.174501720924956,0.12344635402297925,0.0,0,2,0
141,141,Pilot4,162,Experiment,49,1,0,1,1,6,4,1,like2.png,432,3634798.37,36.67,3709,z,474,142,SimClick_Noise_1_L07_R04.wav,SimClick_Noise_1_L06_R04.wav,0,6.161207321695077,-0.4054408570943885,-0.34631615397394183,-1.1489793536520356,0.17407765595569785,-0.5222329678670935,0,10,-2,2,-0.26111648393354675,-0.4670993664969138,-0.7537783614444089,6,4,0.22556655567432946,-0.5709393873562798,0.0,1,2,1
142,142,Pilot4,163,Experiment,44,1,0,1,1,5,9,1,like2.png,612,3646638.96,66.67,931,m,464,143,SimClick_Noise_1_L07_R04.wav,SimClick_Noise_1_L05_R09.wav,0,6.139884552226255,-0.41234008607906314,-0.36956794921030145,0.7758898064156491,-0.17407765595569785,1.2185435916898848,1,14,4,4,0.7833494518006403,0.9341987329938276,0.15075567228888187,9,5,1.2756177631237935,-0.22374651666665027,1.0,1,2,4
143,143,Pilot4,164,Experiment,24,1,0,1,1,3,7,1,like2.png,612,3655510.5,66.67,1554,m,336,144,SimClick_Noise_1_L07_R04.wav,SimClick_Noise_1_L03_R07.wav,0,5.817111159963204,-0.5006502170828986,-0.7215419662637444,0.7758898064156491,-0.8703882797784892,0.5222329678670935,1,10,4,4,-0.26111648393354675,0.9341987329938276,0.15075567228888187,7,3,0.5755836248241508,-0.9181322580459093,1.0,1,1,2
144,144,Pilot4,165,Experiment,66,1,0,1,1,8,3,1,like2.png,612,3664895.16,66.67,2706,z,354,145,SimClick_Noise_1_L07_R04.wav,SimClick_Noise_1_L08_R03.wav,0,5.869296913133774,-0.48823160491048423,-0.6646350785936618,0.7758898064156491,0.8703882797784892,-0.8703882797784892,0,11,-5,5,0.0,-1.1677484162422844,0.6030226891555273,8,3,0.9256006939739722,-0.9181322580459093,1.0,1,3,0
145,145,Pilot4,166,Experiment,84,1,0,1,1,10,3,1,like2.png,612,3675607.18,66.67,1389,z,333,146,SimClick_Noise_1_L07_R04.wav,SimClick_Noise_1_L10_R03.wav,0,5.808142489980444,-0.502719985778301,-0.731322012813821,0.7758898064156491,1.5666989036012806,-0.8703882797784892,0,13,-7,7,0.5222329678670935,-1.6348477827391983,1.507556722888818,10,3,1.625634832273615,-0.9181322580459093,1.0,1,4,0
146,146,Pilot4,167,Experiment,85,1,0,1,1,10,4,1,like2.png,582,3685542.57,61.67,1919,m,585,147,SimClick_Noise_1_L07_R04.wav,SimClick_Noise_1_L10_R04.wav,0,6.371611847231857,-0.3288594153644999,-0.11687677689217213,0.45507827973770165,1.5666989036012806,-0.5222329678670935,1,14,-6,6,0.7833494518006403,-1.4012980994907414,1.0552897060221726,4,10,-0.47446758262531324,1.5122178367814973,0.0,0,4,1
147,147,Pilot4,168,Experiment,31,1,0,1,1,4,5,1,like2.png,612,3695406.69,66.67,2269,m,299,148,SimClick_Noise_1_L07_R04.wav,SimClick_Noise_1_L04_R05.wav,0,5.700443573390687,-0.5261773643261948,-0.8487642221564895,0.7758898064156491,-0.5222329678670935,-0.17407765595569785,1,9,1,1,-0.5222329678670935,0.2335496832484569,-1.2060453783110543,5,4,-0.12445051347549191,-0.5709393873562798,1.0,1,1,1
148,148,Pilot4,169,Experiment,76,1,0,1,1,9,4,1,like2.png,432,3707526.94,36.67,2313,z,1869,149,SimClick_Noise_1_L07_R04.wav,SimClick_Noise_1_L09_R04.wav,0,7.533158807455563,0.5570015862677246,1.1497528753220518,-1.1489793536520356,1.2185435916898848,-0.5222329678670935,0,13,-5,5,0.5222329678670935,-1.1677484162422844,0.6030226891555273,9,4,1.2756177631237935,-0.5709393873562798,0.0,1,4,1
149,149,Pilot4,170,Experiment,30,1,0,1,1,4,3,1,like2.png,582,3718182.5,61.67,2278,m,408,150,SimClick_Noise_1_L07_R04.wav,SimClick_Noise_1_L04_R03.wav,0,6.0112671744041615,-0.45097576839324116,-0.5098210686434828,0.45507827973770165,-0.5222329678670935,-0.8703882797784892,1,7,-1,1,-1.044465935734187,-0.2335496832484569,-1.2060453783110543,3,4,-0.8244846517751346,-0.5709393873562798,1.0,0,1,0
150,150,Pilot4,171,Experiment,28,1,0,1,1,4,1,1,like2.png,612,3728558.48,66.67,944,z,167,151,SimClick_Noise_1_L07_R04.wav,SimClick_Noise_1_L04_R01.wav,0,5.117993812416755,-0.6172471869239001,-1.4839069787029688,0.7758898064156491,-0.5222329678670935,-1.5666989036012806,0,5,-3,3,-1.5666989036012806,-0.7006490497453707,-0.3015113445777635,4,1,-0.47446758262531324,-1.6125179994251684,1.0,1,1,0
151,151,Pilot4,172,Experiment,32,1,0,1,1,4,6,1,like2.png,612,3737430.19,66.67,2901,m,39,152,SimClick_Noise_1_L07_R04.wav,SimClick_Noise_1_L04_R06.wav,0,3.6635616461296463,-0.7055573179277356,-3.0699185409032785,0.7758898064156491,-0.5222329678670935,0.17407765595569785,1,10,2,2,-0.26111648393354675,0.4670993664969138,-0.7537783614444089,6,4,0.22556655567432946,-0.5709393873562798,1.0,1,1,2
152,152,Pilot4,173,Experiment,60,1,0,1,1,7,6,1,like2.png,612,3748277.43,66.67,4747,m,353,153,SimClick_Noise_1_L07_R04.wav,SimClick_Noise_1_L07_R06.wav,0,5.8664680569332965,-0.4889215278089517,-0.6677198554198049,0.7758898064156491,0.5222329678670935,0.17407765595569785,1,13,-1,1,0.5222329678670935,-0.2335496832484569,-1.2060453783110543,6,7,0.22556655567432946,0.4706392247126088,1.0,0,3,2
153,153,Pilot4,174,Experiment,13,1,0,1,1,2,5,1,like2.png,582,3761103.21,61.67,2753,m,29,154,SimClick_Noise_1_L07_R04.wav,SimClick_Noise_1_L02_R05.wav,0,3.367295829986474,-0.7124565469124102,-3.392986897599005,0.45507827973770165,-1.2185435916898848,-0.17407765595569785,1,7,3,3,-1.044465935734187,0.7006490497453707,-0.3015113445777635,5,2,-0.12445051347549191,-1.265325128735539,1.0,1,0,1
154,154,Pilot4,175,Experiment,12,1,0,1,1,2,4,1,like2.png,612,3771901.46,66.67,985,m,427,155,SimClick_Noise_1_L07_R04.wav,SimClick_Noise_1_L02_R04.wav,0,6.056784013228625,-0.43786723332235933,-0.46018641786791936,0.7758898064156491,-1.2185435916898848,-0.5222329678670935,1,6,2,2,-1.3055824196677337,0.4670993664969138,-0.7537783614444089,4,2,-0.47446758262531324,-1.265325128735539,1.0,1,0,1
155,155,Pilot4,176,Experiment,3,1,0,1,1,1,4,1,like2.png,612,3780990.36,66.67,1741,m,116,156,SimClick_Noise_1_L07_R04.wav,SimClick_Noise_1_L01_R04.wav,0,4.7535901911063645,-0.6524332547457408,-1.8812774234046534,0.7758898064156491,-1.5666989036012806,-0.5222329678670935,1,5,3,3,-1.5666989036012806,0.7006490497453707,-0.3015113445777635,4,1,-0.47446758262531324,-1.6125179994251684,1.0,1,0,1
156,156,Pilot4,177,Experiment,54,1,0,1,1,6,10,1,like2.png,492,3791126.58,46.67,1240,m,569,157,SimClick_Noise_1_L07_R04.wav,SimClick_Noise_1_L06_R10.wav,0,6.343880434126331,-0.3398981817399793,-0.1471169921741237,-0.5073563002961406,0.17407765595569785,1.5666989036012806,1,16,4,4,1.3055824196677337,0.9341987329938276,0.15075567228888187,10,6,1.625634832273615,0.12344635402297925,0.0,1,2,4
157,157,Pilot4,178,Experiment,37,1,0,1,1,5,1,1,like2.png,492,3801191.3,46.67,2837,z,550,158,SimClick_Noise_1_L07_R04.wav,SimClick_Noise_1_L05_R01.wav,0,6.309918278226516,-0.35300671681086115,-0.1841516323470381,-0.5073563002961406,-0.17407765595569785,-1.5666989036012806,0,6,-4,4,-1.3055824196677337,-0.9341987329938276,0.15075567228888187,5,1,-0.12445051347549191,-1.6125179994251684,0.0,1,2,0
158,158,Pilot4,179,Experiment,69,1,0,1,1,8,6,1,like2.png,612,3812214.05,66.67,1876,m,356,159,SimClick_Noise_1_L07_R04.wav,SimClick_Noise_1_L08_R06.wav,0,5.87493073085203,-0.4868517591135493,-0.6584915813253819,0.7758898064156491,0.8703882797784892,0.17407765595569785,1,14,-2,2,0.7833494518006403,-0.4670993664969138,-0.7537783614444089,6,8,0.22556655567432946,0.8178320954022383,1.0,0,3,2
159,159,Pilot4,180,Experiment,34,1,0,1,1,4,8,1,like2.png,642,3826142.32,71.67,1639,m,418,160,SimClick_Noise_1_L07_R04.wav,SimClick_Noise_1_L04_R08.wav,0,6.035481432524756,-0.4440765394085665,-0.4834161979045437,1.0967013330935966,-0.5222329678670935,0.8703882797784892,1,12,4,4,0.26111648393354675,0.9341987329938276,0.15075567228888187,8,4,0.9256006939739722,-0.5709393873562798,1.0,1,1,3
160,160,Pilot4,181,Experiment,36,1,0,1,1,4,10,1,like2.png,612,3841534.44,66.67,817,m,1227,161,SimClick_Noise_1_L07_R04.wav,SimClick_Noise_1_L04_R10.wav,0,7.112327444710911,0.11407108545161235,0.6908497909978185,0.7758898064156491,-0.5222329678670935,1.5666989036012806,1,14,6,6,0.7833494518006403,1.4012980994907414,1.0552897060221726,10,4,1.625634832273615,-0.5709393873562798,1.0,1,1,4
161,161,Pilot4,182,Experiment,65,1,0,1,1,8,2,1,like2.png,582,3856279.36,61.67,1299,z,338,162,SimClick_Noise_1_L07_R04.wav,SimClick_Noise_1_L08_R02.wav,0,5.823045895483019,-0.49927037128596363,-0.7150703277980913,0.45507827973770165,0.8703882797784892,-1.2185435916898848,0,10,-6,6,-0.26111648393354675,-1.4012980994907414,1.0552897060221726,8,2,0.9256006939739722,-1.265325128735539,1.0,1,3,0
162,162,Pilot4,183,Experiment,1,1,0,1,1,1,2,1,like2.png,582,3865463.28,61.67,2051,m,405,163,SimClick_Noise_1_L07_R04.wav,SimClick_Noise_1_L01_R02.wav,0,6.003887067106539,-0.45304553708864354,-0.5178688386087119,0.45507827973770165,-1.5666989036012806,-1.2185435916898848,1,3,1,1,-2.088931871468374,0.2335496832484569,-1.2060453783110543,2,1,-1.174501720924956,-1.6125179994251684,1.0,1,0,0
163,163,Pilot4,184,Experiment,4,1,0,1,1,1,5,1,like2.png,642,3875446.88,71.67,1564,m,389,164,SimClick_Noise_1_L07_R04.wav,SimClick_Noise_1_L01_R05.wav,0,5.963579343618446,-0.46408430346412294,-0.561823116422359,1.0967013330935966,-1.5666989036012806,-0.17407765595569785,1,6,4,4,-1.3055824196677337,0.9341987329938276,0.15075567228888187,5,1,-0.12445051347549191,-1.6125179994251684,1.0,1,0,1
164,164,Pilot4,185,Experiment,64,1,0,1,1,8,1,1,like2.png,672,3885311.09,76.67,2153,z,370,165,SimClick_Noise_1_L07_R04.wav,SimClick_Noise_1_L08_R01.wav,0,5.91350300563827,-0.47719283853500477,-0.6164297545799557,1.417512859771544,0.8703882797784892,-1.5666989036012806,0,9,-7,7,-0.5222329678670935,-1.6348477827391983,1.507556722888818,8,1,0.9256006939739722,-1.6125179994251684,1.0,1,3,0
165,165,Pilot4,186,Experiment,88,1,0,1,1,10,7,1,like2.png,432,3895703.05,36.67,2626,z,679,166,SimClick_Noise_1_L07_R04.wav,SimClick_Noise_1_L10_R07.wav,0,6.520621127558696,-0.26400666290855823,0.045613057251706536,-1.1489793536520356,1.5666989036012806,0.5222329678670935,0,17,-3,3,1.5666989036012806,-0.7006490497453707,-0.3015113445777635,10,7,1.625634832273615,0.4706392247126088,0.0,1,4,2
166,166,Pilot4,187,Experiment,56,1,0,1,1,7,2,1,like2.png,402,3906533.73,31.67,1808,m,476,167,SimClick_Noise_1_L07_R04.wav,SimClick_Noise_1_L07_R02.wav,0,6.16541785423142,-0.40406101129745353,-0.3417247034818168,-1.469790880329983,0.5222329678670935,-1.2185435916898848,1,9,-5,5,-0.5222329678670935,-1.1677484162422844,0.6030226891555273,2,7,-1.174501720924956,0.4706392247126088,0.0,0,3,0
167,167,Pilot4,188,Experiment,68,1,0,1,1,8,5,1,like2.png,342,3916909.54,21.67,833,m,718,168,SimClick_Noise_1_L07_R04.wav,SimClick_Noise_1_L08_R05.wav,0,6.576469569048224,-0.23709966986832712,0.10651398889114969,-2.111413933685878,0.8703882797784892,-0.17407765595569785,1,13,-3,3,0.5222329678670935,-0.7006490497453707,-0.3015113445777635,5,8,-0.12445051347549191,0.8178320954022383,0.0,0,3,1
168,168,Pilot4,189,Experiment,78,1,0,1,1,9,6,1,like2.png,342,3926550.44,21.67,3248,m,1009,169,SimClick_Noise_1_L07_R04.wav,SimClick_Noise_1_L09_R06.wav,0,6.9167150203536085,-0.036332106414294935,0.4775407251424415,-2.111413933685878,1.2185435916898848,0.17407765595569785,1,15,-3,3,1.044465935734187,-0.7006490497453707,-0.3015113445777635,6,9,0.22556655567432946,1.165024966091868,0.0,0,4,2
169,169,Pilot4,190,Experiment,9,1,0,1,1,1,10,1,like2.png,582,3940781.51,61.67,1351,m,357,170,SimClick_Noise_1_L07_R04.wav,SimClick_Noise_1_L01_R10.wav,0,5.877735781779639,-0.48616183621508186,-0.6554327633846975,0.45507827973770165,-1.5666989036012806,1.5666989036012806,1,11,9,9,0.0,2.101947149236112,2.412090756622109,10,1,1.625634832273615,-1.6125179994251684,0.0,1,0,4
170,170,Pilot4,191,Experiment,52,1,0,1,1,6,8,1,like2.png,582,3950341.37,61.67,1065,m,350,171,SimClick_Noise_1_L07_R04.wav,SimClick_Noise_1_L06_R08.wav,0,5.857933154483459,-0.4909912965043541,-0.677026892407477,0.45507827973770165,0.17407765595569785,0.8703882797784892,1,14,2,2,0.7833494518006403,0.4670993664969138,-0.7537783614444089,8,6,0.9256006939739722,0.12344635402297925,0.0,1,2,3
171,171,Pilot4,192,Experiment,48,1,0,1,1,6,3,1,like2.png,642,3960463.19,71.67,1836,m,355,172,SimClick_Noise_1_L07_R04.wav,SimClick_Noise_1_L06_R03.wav,0,5.872117789475416,-0.48754168201201675,-0.6615590035472729,1.0967013330935966,0.17407765595569785,-0.8703882797784892,1,9,-3,3,-0.5222329678670935,-0.7006490497453707,-0.3015113445777635,3,6,-0.8244846517751346,0.12344635402297925,1.0,0,2,0
172,172,Pilot4,193,Experiment,86,1,0,1,1,10,5,1,like2.png,582,3971790.1,61.67,3127,m,449,173,SimClick_Noise_1_L07_R04.wav,SimClick_Noise_1_L10_R05.wav,0,6.1070228877422545,-0.42268892955607507,-0.40540253884112787,0.45507827973770165,1.5666989036012806,-0.17407765595569785,1,15,-5,5,1.044465935734187,-1.1677484162422844,0.6030226891555273,5,10,-0.12445051347549191,1.5122178367814973,1.0,0,4,1
173,173,Pilot4,194,Experiment,29,1,0,1,1,4,2,1,like2.png,432,3984405.8,36.67,2470,m,1015,174,SimClick_Noise_1_L07_R04.wav,SimClick_Noise_1_L04_R02.wav,0,6.922643891475888,-0.032192569023490145,0.4840059686709417,-1.1489793536520356,-0.5222329678670935,-1.2185435916898848,1,6,-2,2,-1.3055824196677337,-0.4670993664969138,-0.7537783614444089,2,4,-1.174501720924956,-0.5709393873562798,0.0,0,1,0
174,174,Pilot4,195,Experiment,89,1,0,1,1,10,8,1,like2.png,582,3997062.98,61.67,1844,m,372,175,SimClick_Noise_1_L07_R04.wav,SimClick_Noise_1_L10_R08.wav,0,5.918893854273146,-0.4758129927380699,-0.6105512072931393,0.45507827973770165,1.5666989036012806,0.8703882797784892,1,18,-2,2,1.8278153875348273,-0.4670993664969138,-0.7537783614444089,8,10,0.9256006939739722,1.5122178367814973,1.0,0,4,3
175,175,Pilot4,196,Experiment,55,1,0,1,1,7,1,1,like2.png,582,4006902.86,61.67,2274,z,328,176,SimClick_Noise_1_L07_R04.wav,SimClick_Noise_1_L07_R01.wav,0,5.793013608384144,-0.5061696002706383,-0.7478195722676556,0.45507827973770165,0.5222329678670935,-1.5666989036012806,0,8,-6,6,-0.7833494518006403,-1.4012980994907414,1.0552897060221726,7,1,0.5755836248241508,-1.6125179994251684,1.0,1,3,0
176,176,Pilot4,197,Experiment,71,1,0,1,1,8,9,1,like2.png,552,4018870.35,56.67,2778,z,2129,177,SimClick_Noise_1_L07_R04.wav,SimClick_Noise_1_L08_R09.wav,0,7.663407664893479,0.7363815398692654,1.2917850708745366,0.1342667530597542,0.8703882797784892,1.2185435916898848,0,17,1,1,1.5666989036012806,0.2335496832484569,-1.2060453783110543,8,9,0.9256006939739722,1.165024966091868,0.0,0,3,4
177,177,Pilot4,198,Experiment,40,1,0,1,1,5,4,1,like2.png,282,4030015.38,11.67,3060,z,558,178,SimClick_Noise_1_L07_R04.wav,SimClick_Noise_1_L05_R04.wav,0,6.324358962381311,-0.34748733362312145,-0.16840453009884299,-2.753036987041773,-0.17407765595569785,-0.5222329678670935,0,9,-1,1,-0.5222329678670935,-0.2335496832484569,-1.2060453783110543,5,4,-0.12445051347549191,-0.5709393873562798,0.0,1,2,1
178,178,Pilot4,199,Experiment,17,1,0,1,1,2,9,1,like2.png,612,4041695.0,66.67,1307,m,487,179,SimClick_Noise_1_L07_R04.wav,SimClick_Noise_1_L02_R09.wav,0,6.18826412308259,-0.39647185941431146,-0.31681158110252366,0.7758898064156491,-1.2185435916898848,1.2185435916898848,1,11,7,7,0.0,1.6348477827391983,1.507556722888818,9,2,1.2756177631237935,-1.265325128735539,1.0,1,0,4
179,179,Pilot4,200,Experiment,33,1,0,1,1,4,7,1,like2.png,552,4050974.37,56.67,1863,m,283,180,SimClick_Noise_1_L07_R04.wav,SimClick_Noise_1_L04_R07.wav,0,5.645446897643238,-0.5372161307016742,-0.9087363306121939,0.1342667530597542,-0.5222329678670935,0.5222329678670935,1,11,3,3,0.0,0.7006490497453707,-0.3015113445777635,7,4,0.5755836248241508,-0.5709393873562798,0.0,1,1,2
180,180,Pilot5,21,Experiment,149,1,0,1,1,7,5,2,aversion2.png,342,718059.33,21.67,2928,m,1784,1,SimClick_Noise_1_L07_R04.wav,SimClick_Noise_1_L07_R05.wav,1,7.486613313139955,1.2436429238076363,,-1.8306853059244508,0.5222329678670935,-0.17407765595569785,1,12,-2,2,0.26111648393354675,-0.4670993664969138,-0.7537783614444088,5,7,-0.15635262099882088,0.49797830453025954,0.0,1,3,1
181,181,Pilot5,22,Experiment,140,1,0,1,1,6,5,2,aversion2.png,612,729764.31,66.67,1925,m,489,2,SimClick_Noise_1_L07_R04.wav,SimClick_Noise_1_L06_R05.wav,1,6.192362489474872,-0.3564827353258801,,-0.3500097625255295,0.17407765595569785,-0.17407765595569785,1,11,-1,1,0.0,-0.2335496832484569,-1.206045378311054,5,6,-0.15635262099882088,0.15322409370161838,0.0,1,2,1
182,182,Pilot5,23,Experiment,141,1,0,1,1,6,7,2,aversion2.png,372,741260.61,26.67,1032,m,1169,3,SimClick_Noise_1_L07_R04.wav,SimClick_Noise_1_L06_R07.wav,1,7.063903961472068,0.48373768800291617,,-1.6661658011023484,0.17407765595569785,0.5222329678670935,1,13,1,1,0.5222329678670935,0.2335496832484569,-1.206045378311054,7,6,0.5472341734958728,0.15322409370161838,0.0,0,2,2
183,183,Pilot5,24,Experiment,170,1,0,1,1,9,8,2,aversion2.png,492,751762.85,46.67,1341,m,1704,4,SimClick_Noise_1_L07_R04.wav,SimClick_Noise_1_L09_R08.wav,1,7.440733707389261,1.1447934622395426,,-1.0080877818139389,1.2185435916898848,0.8703882797784892,1,17,-1,1,1.5666989036012806,-0.2335496832484569,-1.206045378311054,8,9,0.8990275707432197,1.187486726187542,0.0,1,4,3
184,184,Pilot5,25,Experiment,118,1,0,1,1,4,1,2,aversion2.png,812,761235.57,100.0,1746,m,410,5,SimClick_Noise_1_L07_R04.wav,SimClick_Noise_1_L04_R01.wav,1,6.016157159698354,-0.45409657862437264,,0.7466772566186047,-0.5222329678670935,-1.5666989036012806,1,5,-3,3,-1.5666989036012806,-0.7006490497453707,-0.30151134457776346,1,4,-1.5635262099882083,-0.536284327955664,1.0,1,1,0
185,185,Pilot5,26,Experiment,130,1,0,1,1,5,4,2,aversion2.png,812,771987.85,100.0,1755,m,479,6,SimClick_Noise_1_L07_R04.wav,SimClick_Noise_1_L05_R04.wav,1,6.171700597410915,-0.36883891802189184,,0.7466772566186047,-0.17407765595569785,-0.5222329678670935,1,9,-1,1,-0.5222329678670935,-0.2335496832484569,-1.206045378311054,4,5,-0.5081460182461678,-0.1915301171270228,1.0,1,2,1
186,186,Pilot5,27,Experiment,158,1,0,1,1,8,5,2,aversion2.png,812,782586.85,100.0,1500,m,428,7,SimClick_Noise_1_L07_R04.wav,SimClick_Noise_1_L08_R05.wav,1,6.059123195581797,-0.43185544977155155,,0.7466772566186047,0.8703882797784892,-0.17407765595569785,1,13,-3,3,0.5222329678670935,-0.7006490497453707,-0.30151134457776346,5,8,-0.15635262099882088,0.8427325153589007,1.0,1,3,1
187,187,Pilot5,28,Experiment,147,1,0,1,1,7,3,2,aversion2.png,762,793610.99,91.67,1514,m,703,8,SimClick_Noise_1_L07_R04.wav,SimClick_Noise_1_L07_R03.wav,1,6.555356891810665,-0.09206042563122951,,0.4725877615849822,0.5222329678670935,-0.8703882797784892,1,10,-4,4,-0.26111648393354675,-0.9341987329938276,0.15075567228888184,3,7,-0.8599394154935146,0.49797830453025954,1.0,1,3,0
188,188,Pilot5,29,Experiment,131,1,0,1,1,5,6,2,aversion2.png,702,804452.58,81.67,1184,z,1444,9,SimClick_Noise_1_L07_R04.wav,SimClick_Noise_1_L05_R06.wav,1,7.275172319452771,0.8235327121432382,,0.1435487519407775,-0.17407765595569785,0.17407765595569785,0,11,1,1,0.0,0.2335496832484569,-1.206045378311054,5,6,-0.15635262099882088,0.15322409370161838,0.0,1,2,2
189,189,Pilot5,30,Experiment,121,1,0,1,1,4,5,2,aversion2.png,282,815003.44,11.67,1418,z,1562,10,SimClick_Noise_1_L07_R04.wav,SimClick_Noise_1_L04_R05.wav,1,7.3537223303996315,0.9693356679561764,,-2.1597243155686554,-0.5222329678670935,-0.17407765595569785,0,9,1,1,-0.5222329678670935,0.2335496832484569,-1.206045378311054,4,5,-0.5081460182461678,-0.1915301171270228,0.0,1,1,1
190,190,Pilot5,31,Experiment,114,1,0,1,1,3,7,2,aversion2.png,552,825362.84,56.67,1299,z,1088,11,SimClick_Noise_1_L07_R04.wav,SimClick_Noise_1_L03_R07.wav,1,6.992096427415888,0.38365260816522134,,-0.6790487721697342,-0.8703882797784892,0.5222329678670935,0,10,4,4,-0.26111648393354675,0.9341987329938276,0.15075567228888184,3,7,-0.8599394154935146,0.49797830453025954,0.0,1,1,2
191,191,Pilot5,32,Experiment,139,1,0,1,1,6,4,2,aversion2.png,732,835107.86,86.67,822,m,583,12,SimClick_Noise_1_L07_R04.wav,SimClick_Noise_1_L06_R04.wav,1,6.368187186350492,-0.24033461798337002,,0.30806825676287986,0.17407765595569785,-0.5222329678670935,1,10,-2,2,-0.26111648393354675,-0.4670993664969138,-0.7537783614444088,4,6,-0.5081460182461678,0.15322409370161838,0.0,1,2,1
192,192,Pilot5,33,Experiment,162,1,0,1,1,8,10,2,aversion2.png,492,845715.62,46.67,1805,z,807,13,SimClick_Noise_1_L07_R04.wav,SimClick_Noise_1_L08_R10.wav,1,6.693323668269949,0.03644387440729228,,-1.0080877818139389,0.8703882797784892,1.5666989036012806,0,18,2,2,1.8278153875348273,0.4670993664969138,-0.7537783614444088,8,10,0.8990275707432197,1.5322409370161831,0.0,1,3,4
193,193,Pilot5,34,Experiment,146,1,0,1,1,7,2,2,aversion2.png,732,855539.98,86.67,1798,m,448,14,SimClick_Noise_1_L07_R04.wav,SimClick_Noise_1_L07_R02.wav,1,6.104793232414985,-0.4071430843795281,,0.30806825676287986,0.5222329678670935,-1.2185435916898848,1,9,-5,5,-0.5222329678670935,-1.1677484162422844,0.6030226891555271,2,7,-1.2117328127408615,0.49797830453025954,1.0,1,3,0
194,194,Pilot5,35,Experiment,153,1,0,1,1,7,10,2,aversion2.png,462,865667.4,41.67,1488,m,792,15,SimClick_Noise_1_L07_R04.wav,SimClick_Noise_1_L07_R10.wav,1,6.674561391814426,0.01790960036327471,,-1.1726072866360413,0.5222329678670935,1.5666989036012806,1,17,3,3,1.5666989036012806,0.7006490497453707,-0.30151134457776346,10,7,1.6026143652379135,0.49797830453025954,0.0,0,3,4
195,195,Pilot5,36,Experiment,173,1,0,1,1,10,2,2,aversion2.png,812,875667.29,100.0,1449,m,709,16,SimClick_Noise_1_L07_R04.wav,SimClick_Noise_1_L10_R02.wav,1,6.5638555265321274,-0.08464671601362249,,0.7466772566186047,1.5666989036012806,-1.2185435916898848,1,12,-8,8,0.26111648393354675,-1.8683974659876552,1.9598237397554632,2,10,-1.2117328127408615,1.5322409370161831,1.0,1,4,0
196,196,Pilot5,37,Experiment,96,1,0,1,1,1,7,2,aversion2.png,702,890868.21,81.67,1704,z,793,17,SimClick_Noise_1_L07_R04.wav,SimClick_Noise_1_L01_R07.wav,1,6.675823221634848,0.019145218632875882,,0.1435487519407775,-1.5666989036012806,0.5222329678670935,0,8,6,6,-0.7833494518006403,1.4012980994907414,1.0552897060221724,1,7,-1.5635262099882083,0.49797830453025954,0.0,1,0,2
197,197,Pilot5,38,Experiment,112,1,0,1,1,3,5,2,aversion2.png,732,900939.53,86.67,1293,z,698,18,SimClick_Noise_1_L07_R04.wav,SimClick_Noise_1_L03_R05.wav,1,6.548219102762372,-0.09823851697923537,,0.30806825676287986,-0.8703882797784892,-0.17407765595569785,0,8,2,2,-0.7833494518006403,0.4670993664969138,-0.7537783614444088,3,5,-0.8599394154935146,-0.1915301171270228,1.0,1,1,1
198,198,Pilot5,39,Experiment,108,1,0,1,1,2,10,2,aversion2.png,812,910291.48,100.0,1638,z,233,19,SimClick_Noise_1_L07_R04.wav,SimClick_Noise_1_L02_R10.wav,1,5.4510384535657,-0.6728010123437799,,0.7466772566186047,-1.2185435916898848,1.5666989036012806,0,12,8,8,0.26111648393354675,1.8683974659876552,1.9598237397554632,2,10,-1.2117328127408615,1.5322409370161831,1.0,1,0,4
199,199,Pilot5,40,Experiment,107,1,0,1,1,2,9,2,aversion2.png,812,921235.38,100.0,2193,z,127,20,SimClick_Noise_1_L07_R04.wav,SimClick_Noise_1_L02_R09.wav,1,4.844187086458591,-0.8037765489215041,,0.7466772566186047,-1.2185435916898848,1.2185435916898848,0,11,7,7,0.0,1.6348477827391983,1.5075567228888176,2,9,-1.2117328127408615,1.187486726187542,1.0,1,0,4
200,200,Pilot5,41,Experiment,160,1,0,1,1,8,7,2,aversion2.png,252,933523.69,6.67,893,m,2399,21,SimClick_Noise_1_L07_R04.wav,SimClick_Noise_1_L08_R07.wav,1,7.782807262839695,2.0035481596123565,,-2.3242438203907576,0.8703882797784892,0.5222329678670935,1,15,-1,1,1.044465935734187,-0.2335496832484569,-1.206045378311054,7,8,0.5472341734958728,0.8427325153589007,0.0,1,3,2
201,201,Pilot5,42,Experiment,157,1,0,1,1,8,4,2,aversion2.png,812,942580.22,100.0,2203,m,455,22,SimClick_Noise_1_L07_R04.wav,SimClick_Noise_1_L08_R04.wav,1,6.12029741895095,-0.39849375649231994,,0.7466772566186047,0.8703882797784892,-0.5222329678670935,1,12,-4,4,0.26111648393354675,-0.9341987329938276,0.15075567228888184,4,8,-0.5081460182461678,0.8427325153589007,1.0,1,3,1
202,202,Pilot5,43,Experiment,143,1,0,1,1,6,9,2,aversion2.png,432,954443.64,36.67,1361,m,469,23,SimClick_Noise_1_L07_R04.wav,SimClick_Noise_1_L06_R09.wav,1,6.150602768446279,-0.3811951007179035,,-1.3371267914581437,0.17407765595569785,1.2185435916898848,1,15,3,3,1.044465935734187,0.7006490497453707,-0.30151134457776346,9,6,1.2508209679905666,0.15322409370161838,0.0,0,2,4
203,203,Pilot5,44,Experiment,151,1,0,1,1,7,8,2,aversion2.png,522,964451.07,51.67,1128,m,959,24,SimClick_Noise_1_L07_R04.wav,SimClick_Noise_1_L07_R08.wav,1,6.8658910748834385,0.2242578513866703,,-0.8435682769918366,0.5222329678670935,0.8703882797784892,1,15,1,1,1.044465935734187,0.2335496832484569,-1.206045378311054,8,7,0.8990275707432197,0.49797830453025954,0.0,0,3,3
204,204,Pilot5,45,Experiment,127,1,0,1,1,5,1,2,aversion2.png,672,973699.36,76.67,1534,m,408,25,SimClick_Noise_1_L07_R04.wav,SimClick_Noise_1_L05_R01.wav,1,6.0112671744041615,-0.456567815163575,,-0.020970752881324828,-0.17407765595569785,-1.5666989036012806,1,6,-4,4,-1.3055824196677337,-0.9341987329938276,0.15075567228888184,1,5,-1.5635262099882083,-0.1915301171270228,0.0,1,2,0
205,205,Pilot5,46,Experiment,110,1,0,1,1,3,2,2,aversion2.png,672,986324.16,76.67,1605,m,549,26,SimClick_Noise_1_L07_R04.wav,SimClick_Noise_1_L03_R02.wav,1,6.3080984415095305,-0.28234563914980987,,-0.020970752881324828,-0.8703882797784892,-1.2185435916898848,1,5,-1,1,-1.5666989036012806,-0.2335496832484569,-1.206045378311054,2,3,-1.2117328127408615,-0.8810385387843052,0.0,1,1,0
206,206,Pilot5,47,Experiment,119,1,0,1,1,4,2,2,aversion2.png,672,997571.33,76.67,1075,m,1313,27,SimClick_Noise_1_L07_R04.wav,SimClick_Noise_1_L04_R02.wav,1,7.180069874302796,0.6616667188254848,,-0.020970752881324828,-0.5222329678670935,-1.2185435916898848,1,6,-2,2,-1.3055824196677337,-0.4670993664969138,-0.7537783614444088,2,4,-1.2117328127408615,-0.536284327955664,0.0,1,1,0
207,207,Pilot5,48,Experiment,111,1,0,1,1,3,4,2,aversion2.png,342,1007675.6,21.67,1864,z,634,28,SimClick_Noise_1_L07_R04.wav,SimClick_Noise_1_L03_R04.wav,1,6.452048954437226,-0.17731808623371031,,-1.8306853059244508,-0.8703882797784892,-0.5222329678670935,0,7,1,1,-1.044465935734187,0.2335496832484569,-1.206045378311054,3,4,-0.8599394154935146,-0.536284327955664,0.0,1,1,1
208,208,Pilot5,49,Experiment,171,1,0,1,1,9,10,2,aversion2.png,552,1019410.83,56.67,1234,m,2219,29,SimClick_Noise_1_L07_R04.wav,SimClick_Noise_1_L09_R10.wav,1,7.704811922932594,1.781136871084146,,-0.6790487721697342,1.2185435916898848,1.5666989036012806,1,19,1,1,2.088931871468374,0.2335496832484569,-1.206045378311054,10,9,1.6026143652379135,1.187486726187542,0.0,0,4,4
209,209,Pilot5,50,Experiment,122,1,0,1,1,4,6,2,aversion2.png,462,1029883.88,41.67,2463,z,1342,30,SimClick_Noise_1_L07_R04.wav,SimClick_Noise_1_L04_R06.wav,1,7.201916317531627,0.6974996486439188,,-1.1726072866360413,-0.5222329678670935,0.17407765595569785,0,10,2,2,-0.26111648393354675,0.4670993664969138,-0.7537783614444088,4,6,-0.5081460182461678,0.15322409370161838,0.0,1,1,2
210,210,Pilot5,51,Experiment,145,1,0,1,1,7,1,2,aversion2.png,792,1043722.86,96.67,1781,m,431,31,SimClick_Noise_1_L07_R04.wav,SimClick_Noise_1_L07_R01.wav,1,6.066108090103747,-0.42814859496274804,,0.6371072664070846,0.5222329678670935,-1.5666989036012806,1,8,-6,6,-0.7833494518006403,-1.4012980994907414,1.0552897060221724,1,7,-1.5635262099882083,0.49797830453025954,1.0,1,3,0
211,211,Pilot5,52,Experiment,179,1,0,1,1,10,8,2,aversion2.png,792,1055899.54,96.67,982,m,525,32,SimClick_Noise_1_L07_R04.wav,SimClick_Noise_1_L10_R08.wav,1,6.263398262591624,-0.31200047762023797,,0.6371072664070846,1.5666989036012806,0.8703882797784892,1,18,-2,2,1.8278153875348273,-0.4670993664969138,-0.7537783614444088,8,10,0.8990275707432197,1.5322409370161831,1.0,1,4,3
212,212,Pilot5,53,Experiment,144,1,0,1,1,6,10,2,aversion2.png,282,1066444.0,11.67,2513,z,1352,33,SimClick_Noise_1_L07_R04.wav,SimClick_Noise_1_L06_R10.wav,1,7.20934025660291,0.7098558313399305,,-2.1597243155686554,0.17407765595569785,1.5666989036012806,0,16,4,4,1.3055824196677337,0.9341987329938276,0.15075567228888184,6,10,0.19544077624852596,1.5322409370161831,0.0,1,2,4
213,213,Pilot5,54,Experiment,169,1,0,1,1,9,7,2,aversion2.png,762,1077579.46,91.67,1019,m,305,34,SimClick_Noise_1_L07_R04.wav,SimClick_Noise_1_L09_R07.wav,1,5.720311776607412,-0.5838364969324956,,0.4725877615849822,1.2185435916898848,0.5222329678670935,1,16,-2,2,1.3055824196677337,-0.4670993664969138,-0.7537783614444088,7,9,0.5472341734958728,1.187486726187542,1.0,1,4,2
214,214,Pilot5,55,Experiment,129,1,0,1,1,5,3,2,aversion2.png,812,1087938.65,100.0,1069,m,1764,35,SimClick_Noise_1_L07_R04.wav,SimClick_Noise_1_L05_R03.wav,1,7.475339236566737,1.218930558415613,,0.7466772566186047,-0.17407765595569785,-0.8703882797784892,1,8,-2,2,-0.7833494518006403,-0.4670993664969138,-0.7537783614444088,3,5,-0.8599394154935146,-0.1915301171270228,1.0,1,2,0
215,215,Pilot5,56,Experiment,94,1,0,1,1,1,5,2,aversion2.png,812,1099027.28,100.0,1864,z,302,36,SimClick_Noise_1_L07_R04.wav,SimClick_Noise_1_L01_R05.wav,1,5.71042701737487,-0.5875433517412991,,0.7466772566186047,-1.5666989036012806,-0.17407765595569785,0,6,4,4,-1.3055824196677337,0.9341987329938276,0.15075567228888184,1,5,-1.5635262099882083,-0.1915301171270228,1.0,1,0,1
216,216,Pilot5,57,Experiment,120,1,0,1,1,4,3,2,aversion2.png,812,1110970.71,100.0,1492,m,512,37,SimClick_Noise_1_L07_R04.wav,SimClick_Noise_1_L04_R03.wav,1,6.238324625039508,-0.32806351512505316,,0.7466772566186047,-0.5222329678670935,-0.8703882797784892,1,7,-1,1,-1.044465935734187,-0.2335496832484569,-1.206045378311054,3,4,-0.8599394154935146,-0.536284327955664,1.0,1,1,0
217,217,Pilot5,58,Experiment,101,1,0,1,1,2,3,2,aversion2.png,792,1122163.75,96.67,1659,z,372,38,SimClick_Noise_1_L07_R04.wav,SimClick_Noise_1_L02_R03.wav,1,5.918893854273146,-0.5010500728692171,,0.6371072664070846,-1.2185435916898848,-0.8703882797784892,0,5,1,1,-1.5666989036012806,0.2335496832484569,-1.206045378311054,2,3,-1.2117328127408615,-0.8810385387843052,1.0,1,0,0
218,218,Pilot5,59,Experiment,117,1,0,1,1,3,10,2,aversion2.png,812,1132234.54,100.0,1538,z,43,39,SimClick_Noise_1_L07_R04.wav,SimClick_Noise_1_L03_R10.wav,1,3.7612001156935624,-0.9075684835680023,,0.7466772566186047,-0.8703882797784892,1.5666989036012806,0,13,7,7,0.5222329678670935,1.6348477827391983,1.5075567228888176,3,10,-0.8599394154935146,1.5322409370161831,1.0,1,1,4
219,219,Pilot5,60,Experiment,93,1,0,1,1,1,4,2,aversion2.png,812,1143411.64,100.0,2258,z,387,40,SimClick_Noise_1_L07_R04.wav,SimClick_Noise_1_L01_R04.wav,1,5.958424693029782,-0.48251579882519957,,0.7466772566186047,-1.5666989036012806,-0.5222329678670935,0,5,3,3,-1.5666989036012806,0.7006490497453707,-0.30151134457776346,1,4,-1.5635262099882083,-0.536284327955664,1.0,1,0,1
220,220,Pilot5,61,Experiment,161,1,0,1,1,8,9,2,aversion2.png,432,1156228.41,36.67,2816,m,1520,41,SimClick_Noise_1_L07_R04.wav,SimClick_Noise_1_L08_R09.wav,1,7.326465613840322,0.9174397006329272,,-1.3371267914581437,0.8703882797784892,1.2185435916898848,1,17,1,1,1.5666989036012806,0.2335496832484569,-1.206045378311054,9,8,1.2508209679905666,0.8427325153589007,0.0,0,3,4
221,221,Pilot5,62,Experiment,136,1,0,1,1,6,1,2,aversion2.png,812,1167474.6,100.0,1080,m,0,42,SimClick_Noise_1_L07_R04.wav,SimClick_Noise_1_L06_R01.wav,1,-inf,-0.9607000691608527,,0.7466772566186047,0.17407765595569785,-1.5666989036012806,1,7,-5,5,-1.044465935734187,-1.1677484162422844,0.6030226891555271,1,6,-1.5635262099882083,0.15322409370161838,1.0,1,2,0
222,222,Pilot5,63,Experiment,150,1,0,1,1,7,6,2,aversion2.png,732,1179228.48,86.67,1090,z,654,43,SimClick_Noise_1_L07_R04.wav,SimClick_Noise_1_L07_R06.wav,1,6.483107351457199,-0.1526057208416869,,0.30806825676287986,0.5222329678670935,0.17407765595569785,0,13,-1,1,0.5222329678670935,-0.2335496832484569,-1.206045378311054,7,6,0.5472341734958728,0.15322409370161838,1.0,0,3,2
223,223,Pilot5,64,Experiment,99,1,0,1,1,1,10,2,aversion2.png,812,1191067.44,100.0,1159,z,326,44,SimClick_Noise_1_L07_R04.wav,SimClick_Noise_1_L01_R10.wav,1,5.786897381366708,-0.557888513270871,,0.7466772566186047,-1.5666989036012806,1.5666989036012806,0,11,9,9,0.0,2.101947149236112,2.4120907566221086,1,10,-1.5635262099882083,1.5322409370161831,1.0,1,0,4
224,224,Pilot5,65,Experiment,176,1,0,1,1,10,5,2,aversion2.png,812,1200075.0,100.0,1128,m,584,45,SimClick_Noise_1_L07_R04.wav,SimClick_Noise_1_L10_R05.wav,1,6.369900982828227,-0.23909899971376886,,0.7466772566186047,1.5666989036012806,-0.17407765595569785,1,15,-5,5,1.044465935734187,-1.1677484162422844,0.6030226891555271,5,10,-0.15635262099882088,1.5322409370161831,1.0,1,4,1
225,225,Pilot5,66,Experiment,178,1,0,1,1,10,7,2,aversion2.png,812,1327746.62,100.0,1349,m,522,46,SimClick_Noise_1_L07_R04.wav,SimClick_Noise_1_L10_R07.wav,1,6.257667587882639,-0.3157073324290415,,0.7466772566186047,1.5666989036012806,0.5222329678670935,1,17,-3,3,1.5666989036012806,-0.7006490497453707,-0.30151134457776346,7,10,0.5472341734958728,1.5322409370161831,1.0,1,4,2
226,226,Pilot5,67,Experiment,142,1,0,1,1,6,8,2,aversion2.png,812,1337723.65,100.0,1317,m,616,47,SimClick_Noise_1_L07_R04.wav,SimClick_Noise_1_L06_R08.wav,1,6.423246963533519,-0.1995592150865314,,0.7466772566186047,0.17407765595569785,0.8703882797784892,1,14,2,2,0.7833494518006403,0.4670993664969138,-0.7537783614444088,8,6,0.8990275707432197,0.15322409370161838,1.0,0,2,3
227,227,Pilot5,68,Experiment,137,1,0,1,1,6,2,2,aversion2.png,812,1348587.06,100.0,1259,z,546,48,SimClick_Noise_1_L07_R04.wav,SimClick_Noise_1_L06_R02.wav,1,6.302618975744905,-0.2860524939586134,,0.7466772566186047,0.17407765595569785,-1.2185435916898848,0,8,-4,4,-0.7833494518006403,-0.9341987329938276,0.15075567228888184,6,2,0.19544077624852596,-1.2257927496129464,1.0,0,2,0
228,228,Pilot5,69,Experiment,128,1,0,1,1,5,2,2,aversion2.png,792,1359666.39,96.67,1711,m,542,49,SimClick_Noise_1_L07_R04.wav,SimClick_Noise_1_L05_R02.wav,1,6.295266001439646,-0.29099496703701805,,0.6371072664070846,-0.17407765595569785,-1.2185435916898848,1,7,-3,3,-1.044465935734187,-0.7006490497453707,-0.30151134457776346,2,5,-1.2117328127408615,-0.1915301171270228,1.0,1,2,0
229,229,Pilot5,70,Experiment,138,1,0,1,1,6,3,2,aversion2.png,792,1369891.94,96.67,1710,m,601,50,SimClick_Noise_1_L07_R04.wav,SimClick_Noise_1_L06_R03.wav,1,6.398594934535208,-0.21809348913054896,,0.6371072664070846,0.17407765595569785,-0.8703882797784892,1,9,-3,3,-0.5222329678670935,-0.7006490497453707,-0.30151134457776346,3,6,-0.8599394154935146,0.15322409370161838,1.0,1,2,0
230,230,Pilot5,71,Experiment,123,1,0,1,1,4,7,2,aversion2.png,342,1382244.31,21.67,1185,z,870,51,SimClick_Noise_1_L07_R04.wav,SimClick_Noise_1_L04_R07.wav,1,6.76849321164863,0.11428782539216605,,-1.8306853059244508,-0.5222329678670935,0.5222329678670935,0,11,3,3,0.0,0.7006490497453707,-0.30151134457776346,4,7,-0.5081460182461678,0.49797830453025954,0.0,1,1,2
231,231,Pilot5,72,Experiment,134,1,0,1,1,5,9,2,aversion2.png,372,1393996.24,26.67,1827,z,1622,52,SimClick_Noise_1_L07_R04.wav,SimClick_Noise_1_L05_R09.wav,1,7.3914152346753585,1.0434727641322468,,-1.6661658011023484,-0.17407765595569785,1.2185435916898848,0,14,4,4,0.7833494518006403,0.9341987329938276,0.15075567228888184,5,9,-0.15635262099882088,1.187486726187542,0.0,1,2,4
232,232,Pilot5,73,Experiment,125,1,0,1,1,4,9,2,aversion2.png,762,1404834.69,91.67,1545,z,327,53,SimClick_Noise_1_L07_R04.wav,SimClick_Noise_1_L04_R09.wav,1,5.7899601708972535,-0.5566528950012698,,0.4725877615849822,-0.5222329678670935,1.2185435916898848,0,13,5,5,0.5222329678670935,1.1677484162422844,0.6030226891555271,4,9,-0.5081460182461678,1.187486726187542,1.0,1,1,4
233,233,Pilot5,74,Experiment,132,1,0,1,1,5,7,2,aversion2.png,702,1417475.87,81.67,1344,z,1135,54,SimClick_Noise_1_L07_R04.wav,SimClick_Noise_1_L05_R07.wav,1,7.034387929915503,0.4417266668364764,,0.1435487519407775,-0.17407765595569785,0.5222329678670935,0,12,2,2,0.26111648393354675,0.4670993664969138,-0.7537783614444088,5,7,-0.15635262099882088,0.49797830453025954,0.0,1,2,2
234,234,Pilot5,75,Experiment,174,1,0,1,1,10,3,2,aversion2.png,732,1428331.54,86.67,2845,m,524,55,SimClick_Noise_1_L07_R04.wav,SimClick_Noise_1_L10_R03.wav,1,6.261491684321042,-0.31323609588983914,,0.30806825676287986,1.5666989036012806,-0.8703882797784892,1,13,-7,7,0.5222329678670935,-1.6348477827391983,1.5075567228888176,3,10,-0.8599394154935146,1.5322409370161831,0.0,1,4,0
235,235,Pilot5,76,Experiment,166,1,0,1,1,9,4,2,aversion2.png,732,1440355.04,86.67,2259,m,647,56,SimClick_Noise_1_L07_R04.wav,SimClick_Noise_1_L09_R04.wav,1,6.472346294500901,-0.1612550487288951,,0.30806825676287986,1.2185435916898848,-0.5222329678670935,1,13,-5,5,0.5222329678670935,-1.1677484162422844,0.6030226891555271,4,9,-0.5081460182461678,1.187486726187542,0.0,1,4,1
236,236,Pilot5,77,Experiment,155,1,0,1,1,8,2,2,aversion2.png,732,1451307.54,86.67,1454,m,400,57,SimClick_Noise_1_L07_R04.wav,SimClick_Noise_1_L08_R02.wav,1,5.991464547107982,-0.4664527613203843,,0.30806825676287986,0.8703882797784892,-1.2185435916898848,1,10,-6,6,-0.26111648393354675,-1.4012980994907414,1.0552897060221724,2,8,-1.2117328127408615,0.8427325153589007,0.0,1,3,0
237,237,Pilot5,78,Experiment,165,1,0,1,1,9,3,2,aversion2.png,812,1460964.17,100.0,1228,m,273,58,SimClick_Noise_1_L07_R04.wav,SimClick_Noise_1_L09_R03.wav,1,5.60947179518496,-0.623376281559733,,0.7466772566186047,1.2185435916898848,-0.8703882797784892,1,12,-6,6,0.26111648393354675,-1.4012980994907414,1.0552897060221724,3,9,-0.8599394154935146,1.187486726187542,1.0,1,4,0
238,238,Pilot5,79,Experiment,172,1,0,1,1,10,1,2,aversion2.png,812,1470139.22,100.0,1869,m,181,59,SimClick_Noise_1_L07_R04.wav,SimClick_Noise_1_L10_R01.wav,1,5.198497031265826,-0.7370531623630407,,0.7466772566186047,1.5666989036012806,-1.5666989036012806,1,11,-9,9,0.0,-2.101947149236112,2.4120907566221086,1,10,-1.5635262099882083,1.5322409370161831,1.0,1,4,0
239,239,Pilot5,80,Experiment,133,1,0,1,1,5,8,2,aversion2.png,762,1480515.11,91.67,2311,z,74,60,SimClick_Noise_1_L07_R04.wav,SimClick_Noise_1_L05_R08.wav,1,4.30406509320417,-0.8692643172103661,,0.4725877615849822,-0.17407765595569785,0.8703882797784892,0,13,3,3,0.5222329678670935,0.7006490497453707,-0.30151134457776346,5,8,-0.15635262099882088,0.8427325153589007,1.0,1,2,3
240,240,Pilot5,81,Experiment,106,1,0,1,1,2,8,2,aversion2.png,812,1490659.14,100.0,2409,z,68,61,SimClick_Noise_1_L07_R04.wav,SimClick_Noise_1_L02_R08.wav,1,4.219507705176107,-0.8766780268279731,,0.7466772566186047,-1.2185435916898848,0.8703882797784892,0,10,6,6,-0.26111648393354675,1.4012980994907414,1.0552897060221724,2,8,-1.2117328127408615,0.8427325153589007,1.0,1,0,3
241,241,Pilot5,82,Experiment,91,1,0,1,1,1,2,2,aversion2.png,812,1505786.76,100.0,1651,z,29,62,SimClick_Noise_1_L07_R04.wav,SimClick_Noise_1_L01_R02.wav,1,3.367295829986474,-0.9248671393424188,,0.7466772566186047,-1.5666989036012806,-1.2185435916898848,0,3,1,1,-2.088931871468374,0.2335496832484569,-1.206045378311054,1,2,-1.5635262099882083,-1.2257927496129464,1.0,1,0,0
242,242,Pilot5,83,Experiment,177,1,0,1,1,10,6,2,aversion2.png,282,1519283.47,11.67,1415,m,559,63,SimClick_Noise_1_L07_R04.wav,SimClick_Noise_1_L10_R06.wav,1,6.326149473155099,-0.2699894564537981,,-2.1597243155686554,1.5666989036012806,0.17407765595569785,1,16,-4,4,1.3055824196677337,-0.9341987329938276,0.15075567228888184,6,10,0.19544077624852596,1.5322409370161831,0.0,1,4,2
243,243,Pilot5,84,Experiment,95,1,0,1,1,1,6,2,aversion2.png,812,1530355.95,100.0,2155,z,165,64,SimClick_Noise_1_L07_R04.wav,SimClick_Noise_1_L01_R06.wav,1,5.10594547390058,-0.7568230546766596,,0.7466772566186047,-1.5666989036012806,0.17407765595569785,0,7,5,5,-1.044465935734187,1.1677484162422844,0.6030226891555271,1,6,-1.5635262099882083,0.15322409370161838,1.0,1,0,2
244,244,Pilot5,85,Experiment,109,1,0,1,1,3,1,2,aversion2.png,252,1543027.52,6.67,1530,z,1920,65,SimClick_Noise_1_L07_R04.wav,SimClick_Noise_1_L03_R01.wav,1,7.560080465021827,1.4116870084733957,,-2.3242438203907576,-0.8703882797784892,-1.5666989036012806,0,4,-2,2,-1.8278153875348273,-0.4670993664969138,-0.7537783614444088,3,1,-0.8599394154935146,-1.5705469604415876,0.0,0,1,0
245,245,Pilot5,86,Experiment,168,1,0,1,1,9,6,2,aversion2.png,372,1554796.11,26.67,1027,z,1972,66,SimClick_Noise_1_L07_R04.wav,SimClick_Noise_1_L09_R06.wav,1,7.586803535162581,1.4759391584926567,,-1.6661658011023484,1.2185435916898848,0.17407765595569785,0,15,-3,3,1.044465935734187,-0.7006490497453707,-0.30151134457776346,9,6,1.2508209679905666,0.15322409370161838,0.0,0,4,2
246,246,Pilot5,87,Experiment,164,1,0,1,1,9,2,2,aversion2.png,762,1565715.14,91.67,1183,m,307,67,SimClick_Noise_1_L07_R04.wav,SimClick_Noise_1_L09_R02.wav,1,5.726847747587197,-0.5813652603932933,,0.4725877615849822,1.2185435916898848,-1.2185435916898848,1,11,-7,7,0.0,-1.6348477827391983,1.5075567228888176,2,9,-1.2117328127408615,1.187486726187542,1.0,1,4,0
247,247,Pilot5,88,Experiment,103,1,0,1,1,2,5,2,aversion2.png,792,1575483.91,96.67,1374,z,76,68,SimClick_Noise_1_L07_R04.wav,SimClick_Noise_1_L02_R05.wav,1,4.330733340286331,-0.8667930806711638,,0.6371072664070846,-1.2185435916898848,-0.17407765595569785,0,7,3,3,-1.044465935734187,0.7006490497453707,-0.30151134457776346,2,5,-1.2117328127408615,-0.1915301171270228,1.0,1,0,1
248,248,Pilot5,89,Experiment,156,1,0,1,1,8,3,2,aversion2.png,212,1589339.8,0.0,1772,m,2082,69,SimClick_Noise_1_L07_R04.wav,SimClick_Noise_1_L08_R03.wav,1,7.641084249174914,1.6118571681487854,,-2.5437128398234425,0.8703882797784892,-0.8703882797784892,1,11,-5,5,0.0,-1.1677484162422844,0.6030226891555271,3,8,-0.8599394154935146,0.8427325153589007,0.0,1,3,0
249,249,Pilot5,90,Experiment,175,1,0,1,1,10,4,2,aversion2.png,672,1600946.33,76.67,2404,m,422,70,SimClick_Noise_1_L07_R04.wav,SimClick_Noise_1_L10_R04.wav,1,6.045005314036012,-0.43926915938915856,,-0.020970752881324828,1.5666989036012806,-0.5222329678670935,1,14,-6,6,0.7833494518006403,-1.4012980994907414,1.0552897060221724,4,10,-0.5081460182461678,1.5322409370161831,0.0,1,4,1
250,250,Pilot5,91,Experiment,104,1,0,1,1,2,6,2,aversion2.png,702,1612540.06,81.67,1340,z,699,71,SimClick_Noise_1_L07_R04.wav,SimClick_Noise_1_L02_R06.wav,1,6.54965074223381,-0.09700289870963419,,0.1435487519407775,-1.2185435916898848,0.17407765595569785,0,8,4,4,-0.7833494518006403,0.9341987329938276,0.15075567228888184,2,6,-1.2117328127408615,0.15322409370161838,0.0,1,0,2
251,251,Pilot5,92,Experiment,167,1,0,1,1,9,5,2,aversion2.png,372,1624522.72,26.67,1044,m,632,72,SimClick_Noise_1_L07_R04.wav,SimClick_Noise_1_L09_R05.wav,1,6.448889394146858,-0.17978932277291265,,-1.6661658011023484,1.2185435916898848,-0.17407765595569785,1,14,-4,4,0.7833494518006403,-0.9341987329938276,0.15075567228888184,5,9,-0.15635262099882088,1.187486726187542,0.0,1,4,1
252,252,Pilot5,93,Experiment,135,1,0,1,1,5,10,2,aversion2.png,372,1638019.4,26.67,2011,z,728,73,SimClick_Noise_1_L07_R04.wav,SimClick_Noise_1_L05_R10.wav,1,6.590301048196686,-0.06116996889120024,,-1.6661658011023484,-0.17407765595569785,1.5666989036012806,0,15,5,5,1.044465935734187,1.1677484162422844,0.6030226891555271,5,10,-0.15635262099882088,1.5322409370161831,0.0,1,2,4
253,253,Pilot5,94,Experiment,148,1,0,1,1,7,4,2,aversion2.png,702,1649314.31,81.67,934,m,423,74,SimClick_Noise_1_L07_R04.wav,SimClick_Noise_1_L07_R04.wav,1,6.0473721790462776,-0.4380335411195574,,0.1435487519407775,0.5222329678670935,-0.5222329678670935,1,11,-3,3,0.0,-0.7006490497453707,-0.30151134457776346,4,7,-0.5081460182461678,0.49797830453025954,0.0,1,3,1
254,254,Pilot5,95,Experiment,100,1,0,1,1,2,1,2,aversion2.png,672,1664683.84,76.67,2519,z,1826,75,SimClick_Noise_1_L07_R04.wav,SimClick_Noise_1_L02_R01.wav,1,7.509883061154913,1.2955388911308856,,-0.020970752881324828,-1.2185435916898848,-1.5666989036012806,0,3,-1,1,-2.088931871468374,-0.2335496832484569,-1.206045378311054,2,1,-1.2117328127408615,-1.5705469604415876,0.0,0,0,0
255,255,Pilot5,96,Experiment,113,1,0,1,1,3,6,2,aversion2.png,812,1680299.61,100.0,1398,z,308,76,SimClick_Noise_1_L07_R04.wav,SimClick_Noise_1_L03_R06.wav,1,5.730099782973574,-0.5801296421236921,,0.7466772566186047,-0.8703882797784892,0.17407765595569785,0,9,3,3,-0.5222329678670935,0.7006490497453707,-0.30151134457776346,3,6,-0.8599394154935146,0.15322409370161838,1.0,1,1,2
256,256,Pilot5,97,Experiment,159,1,0,1,1,8,6,2,aversion2.png,642,1692203.0,71.67,1954,m,29,77,SimClick_Noise_1_L07_R04.wav,SimClick_Noise_1_L08_R06.wav,1,3.367295829986474,-0.9248671393424188,,-0.18549025770342717,0.8703882797784892,0.17407765595569785,1,14,-2,2,0.7833494518006403,-0.4670993664969138,-0.7537783614444088,6,8,0.19544077624852596,0.8427325153589007,0.0,1,3,2
257,257,Pilot5,98,Experiment,124,1,0,1,1,4,8,2,aversion2.png,462,1704451.77,41.67,2000,z,1327,78,SimClick_Noise_1_L07_R04.wav,SimClick_Noise_1_L04_R08.wav,1,7.190676034332207,0.6789653745999013,,-1.1726072866360413,-0.5222329678670935,0.8703882797784892,0,12,4,4,0.26111648393354675,0.9341987329938276,0.15075567228888184,4,8,-0.5081460182461678,0.8427325153589007,0.0,1,1,3
258,258,Pilot5,99,Experiment,116,1,0,1,1,3,9,2,aversion2.png,702,1716442.38,81.67,1433,z,268,79,SimClick_Noise_1_L07_R04.wav,SimClick_Noise_1_L03_R09.wav,1,5.5909869805108565,-0.6295543729077389,,0.1435487519407775,-0.8703882797784892,1.2185435916898848,0,12,6,6,0.26111648393354675,1.4012980994907414,1.0552897060221724,3,9,-0.8599394154935146,1.187486726187542,0.0,1,1,4
